participant,block,trial,effect,order,distance,diag,config_1,config_2,h_1,w_1,h_2,w_2,h_3,w_3,choice,choice_name,rt,correct
10,1,1,critical,whd,45,upper,4,4.2,125,200,200,125,117,117,2,h,2.4494056701660156,1
10,1,2,filler_square,NA,NA,NA,4,4.1,104.90656932793442,84.83673681607446,90.74643147467054,130.22477053878134,155.4564327555359,155.4564327555359,3,NA,3.944561719894409,1
10,1,3,critical,hwd,60,upper,2.1,2.11,200,125,125,200,100,100,1,h,7.7495198249816895,1
10,1,4,catch,NA,NA,NA,2.2,2.22,180,145,133,57,107,83,1,NA,1.7188806533813477,1
10,1,5,critical,dhw,45,lower,2.1,2.11,65,65,133,57,57,133,3,w,5.363122940063477,1
10,1,6,filler_square,NA,NA,NA,2.2,2.22,108.47394079718032,132.8689742150992,163.36316077311417,163.36316077311417,94.71267172148191,57.870459233017385,2,NA,2.3854637145996094,1
10,1,7,critical,dwh,45,upper,4,4.2,117,117,125,200,200,125,2,w,2.447829008102417,1
10,1,8,filler_square,NA,NA,NA,2.1,2.12,122.93753300457954,122.93753300457954,99.26265299067771,77.71655958291797,102.32394966876083,75.00629780710489,1,NA,1.5535213947296143,1
10,1,9,catch,NA,NA,NA,3,3.1,137,188,131,59,113,77,1,NA,1.5563673973083496,1
10,1,10,filler_square,NA,NA,NA,2.2,2.22,131.3321622055878,106.45694340986483,132.78048466847972,62.95420134049044,161.68139802873586,161.68139802873586,3,NA,1.9867990016937256,1
10,1,11,filler_random,NA,NA,NA,1,1.3,120.47392899138764,78.54181272929483,57.60690260081367,113.10780675735717,149.57224132039,122.70361820256838,3,NA,1.6819770336151123,1
10,1,12,filler_square,NA,NA,NA,4,4.1,59.416513643929044,77.2868683060755,57.957033604341945,65.85001496472401,78.52316203253666,78.52316203253666,3,NA,2.8372671604156494,1
10,1,13,filler_square,NA,NA,NA,2.2,2.21,101.11619689544483,116.15529691638702,163.4831399640706,163.4831399640706,78.72344380490894,85.79398914072468,2,NA,1.650275468826294,1
10,1,14,critical,wdh,60,upper,1,1.2,125,200,100,100,200,125,1,w,2.483476161956787,1
10,1,15,filler_random,NA,NA,NA,4,4.1,176.36338218610013,67.86023224795154,111.80333785726322,129.75040373887333,119.50216788530186,160.57316865626672,3,NA,3.056253433227539,1
10,1,16,catch,NA,NA,NA,4,4.2,118,72,199,126,131,59,2,NA,1.325143575668335,1
10,1,17,critical,dhw,60,lower,1,1.1,55,55,133,57,57,133,2,h,5.61496901512146,1
10,1,18,filler_random,NA,NA,NA,1,1.2,142.50311251980972,193.9321517684046,63.303281864595164,132.1627542360543,120.33802987910559,127.69928424939611,1,NA,1.284301996231079,1
10,1,19,catch,NA,NA,NA,2.1,2.11,199,126,103,87,119,71,1,NA,0.900428295135498,1
10,1,20,filler_square,NA,NA,NA,1,1.1,148.80138921058023,148.80138921058023,80.80952482286472,127.64312763077524,94.68024822398621,122.42987031017744,1,NA,1.3911283016204834,1
10,1,21,filler_square,NA,NA,NA,3,3.1,163.02693138694445,163.02693138694445,88.45246293828927,73.4677202374123,132.76237486281752,151.55575559363993,1,NA,1.6407408714294434,1
10,1,22,critical,whd,60,lower,2.1,2.12,57,133,133,57,55,55,2,h,3.9763898849487305,1
10,1,23,critical,whd,45,lower,1,1.3,57,133,133,57,65,65,1,w,1.9727683067321777,1
10,1,24,filler_random,NA,NA,NA,3,3.2,86.71650833095293,71.34469534188169,183.387429328822,127.80158367354352,185.84198584353035,153.23425460376473,3,NA,1.7648663520812988,1
10,1,25,critical,hwd,60,lower,2.1,2.11,133,57,57,133,55,55,1,h,2.475911855697632,1
10,1,26,filler_square,NA,NA,NA,3,3.2,81.51101806530777,76.65748177943127,126.00674592331382,126.00674592331382,79.46378723579254,65.623907131901845,2,NA,1.1805408000946045,1
10,1,27,filler_random,NA,NA,NA,1,1.2,151.6456533649005,98.9358776325529,65.79675008820317,196.5690391563071,80.46292082860778,67.73738300329909,1,NA,2.4460225105285645,1
10,1,28,critical,wdh,45,upper,4,4.2,125,200,117,117,200,125,1,w,1.6297578811645508,1
10,1,29,critical,dwh,45,upper,2.1,2.12,117,117,125,200,200,125,2,w,2.587472915649414,1
10,1,30,critical,wdh,45,upper,2.1,2.11,125,200,117,117,200,125,1,w,3.2999720573425293,1
10,1,31,critical,wdh,60,lower,4,4.2,57,133,55,55,133,57,1,w,4.827115058898926,1
10,1,32,critical,hdw,45,lower,1,1.2,133,57,65,65,57,133,1,h,1.2026958465576172,1
10,1,33,filler_random,NA,NA,NA,3,3.1,154.04396482140913,171.19400555567273,194.9750796803482,116.6963688317145,128.6775102296262,145.68499612968228,1,NA,4.315584659576416,1
10,1,34,critical,dhw,45,lower,3,3.1,65,65,133,57,57,133,2,h,2.3078665733337402,1
10,1,35,filler_random,NA,NA,NA,2.2,2.21,142.9046625750867,70.50964017946994,140.90347770410074,195.16605998219453,174.45381088509586,138.72539164340674,2,NA,5.694274187088013,1
10,1,36,critical,dwh,45,lower,3,3.1,65,65,57,133,133,57,3,h,2.363300085067749,1
10,1,37,critical,dwh,60,upper,2.1,2.12,100,100,125,200,200,125,2,w,2.847580909729004,1
10,1,38,critical,whd,60,upper,4,4.2,125,200,200,125,100,100,1,w,1.2812411785125732,1
10,1,39,critical,hwd,60,lower,3,3.1,133,57,57,133,55,55,1,h,3.402155876159668,1
10,1,40,filler_square,NA,NA,NA,2.2,2.21,190.5513909631353,190.5513909631353,147.66548058169235,161.25146483945127,136.28023906822415,169.48559961983727,1,NA,1.8031017780303955,1
10,1,41,filler_square,NA,NA,NA,2.1,2.11,109.40975731822087,115.33269074171454,178.41843204225066,178.41843204225066,70.66983402678898,145.57287020715728,2,NA,1.1162078380584717,1
10,1,42,critical,dwh,60,upper,1,1.3,100,100,125,200,200,125,2,w,2.8906667232513428,1
10,1,43,critical,hwd,45,lower,2.1,2.12,133,57,57,133,65,65,1,h,2.2298221588134766,1
10,1,44,critical,dwh,45,upper,3,3.1,117,117,125,200,200,125,2,w,2.0493967533111572,1
10,1,45,filler_square,NA,NA,NA,3,3.1,168.82170345613463,168.82170345613463,65.84094524865333,122.88964773752811,157.9943539325394,148.83745439005605,1,NA,1.7520639896392822,1
10,1,46,critical,hwd,45,lower,2.1,2.12,133,57,57,133,65,65,1,h,3.260618209838867,1
10,1,47,critical,whd,45,upper,2.1,2.11,125,200,200,125,117,117,1,w,5.69118857383728,1
10,1,48,critical,dwh,45,lower,4,4.2,65,65,57,133,133,57,2,w,1.8541948795318604,1
10,1,49,filler_square,NA,NA,NA,2.1,2.12,71.61931816675745,76.30321750499236,116.30925361965853,116.30925361965853,116.2447857828729,67.37127183625104,2,NA,2.224520444869995,1
10,1,50,filler_square,NA,NA,NA,2.2,2.21,151.59550817671746,151.59550817671746,130.487557208552,119.07977953048035,58.322910755630325,90.19156972524311,1,NA,1.851048231124878,1
10,1,51,filler_square,NA,NA,NA,2.1,2.11,93.05297493872408,96.6723145206846,83.72610616914739,71.13012948819863,149.1373470290751,149.1373470290751,3,NA,1.9493277072906494,1
10,1,52,critical,wdh,45,lower,2.1,2.12,57,133,65,65,133,57,3,h,1.8564777374267578,1
10,1,53,critical,whd,45,upper,1,1.1,125,200,200,125,117,117,2,h,2.5772292613983154,1
10,1,54,filler_square,NA,NA,NA,2.1,2.12,73.85282101670546,73.85282101670546,57.3362968090523,67.4165554461409,69.33633111688778,71.91467130354104,1,NA,2.6118366718292236,1
10,1,55,filler_random,NA,NA,NA,3,3.2,70.18713903302829,107.28209467886266,175.02166689785253,85.45308643855944,126.77407100385004,60.75785811683626,2,NA,2.004916191101074,1
10,1,56,filler_random,NA,NA,NA,4,4.2,154.89711590968614,62.01371707806821,198.610856312389,111.73195226772046,121.02812441395879,192.3190630942798,3,NA,2.176774501800537,1
10,1,57,critical,hdw,45,lower,3,3.1,133,57,65,65,57,133,3,w,3.184962749481201,1
10,1,58,filler_square,NA,NA,NA,3,3.1,132.85733714130197,109.20366984383733,134.2526577824105,134.2526577824105,61.32341941241966,133.365731431035,2,NA,1.733752727508545,1
10,1,59,filler_square,NA,NA,NA,2.2,2.21,63.204921049329215,65.55635073421996,68.33583000160722,68.33583000160722,64.44673376332904,59.77949931294081,2,NA,5.319628477096558,1
10,1,60,filler_random,NA,NA,NA,4,4.1,180.9741121091921,163.04903495963637,75.84974519651071,164.7039915315975,174.5702206230731,164.4182440745871,1,NA,8.130226373672485,1
10,1,61,filler_random,NA,NA,NA,4,4.1,118.21219178087497,90.66062677332553,133.64113858731776,163.52508091439609,134.66457452149263,71.2869593423754,2,NA,1.8417236804962158,1
10,1,62,filler_square,NA,NA,NA,2.1,2.11,118.13363880973462,118.13363880973462,77.9811431609557,105.7035072536799,76.98065833466802,108.97069187375662,1,NA,5.799993515014648,1
10,1,63,filler_square,NA,NA,NA,2.1,2.12,60.34228438383661,69.4456012610828,74.85342060862266,74.85342060862266,67.1504003999635,57.07014160602296,2,NA,1.7922697067260742,1
10,1,64,filler_random,NA,NA,NA,1,1.2,92.65256801663956,151.2549826791323,169.29053511878914,170.11690554137056,70.67332753800562,135.5639543006863,2,NA,1.1359589099884033,1
10,1,65,critical,dwh,60,lower,1,1.1,55,55,57,133,133,57,2,w,2.8283915519714355,1
10,1,66,filler_random,NA,NA,NA,2.1,2.11,183.9317987608162,161.4060591549129,174.32958680254748,158.83467784100702,167.91654637554998,128.01258571672128,1,NA,3.111973762512207,1
10,1,67,filler_random,NA,NA,NA,4,4.2,150.68857634751924,149.73361493825942,197.4576558007754,71.23892132294301,133.55980210661994,119.75793031486526,1,NA,1.8391954898834229,1
10,1,68,filler_random,NA,NA,NA,2.2,2.21,96.29735718576825,143.30822928397504,185.7116877146767,110.802774050527,71.74001909728624,153.26298998274586,2,NA,2.380518674850464,1
10,1,69,critical,hdw,45,lower,4,4.1,133,57,65,65,57,133,3,w,6.034531831741333,1
10,1,70,filler_random,NA,NA,NA,3,3.1,166.93760784314438,123.43431726220012,123.4467398392961,183.50260614338947,165.8697701243234,146.54733755630855,3,NA,4.287280559539795,1
10,1,71,critical,whd,60,lower,1,1.3,57,133,133,57,55,55,2,h,2.8743278980255127,1
10,1,72,critical,hdw,60,lower,4,4.2,133,57,55,55,57,133,1,h,2.3776423931121826,1
10,1,73,critical,hwd,60,lower,2.1,2.11,133,57,57,133,55,55,1,h,2.5379505157470703,1
10,1,74,critical,dwh,60,upper,4,4.2,100,100,125,200,200,125,2,w,2.955087423324585,1
10,1,75,critical,hdw,45,lower,2.1,2.11,133,57,65,65,57,133,1,h,4.115189552307129,1
10,1,76,filler_random,NA,NA,NA,3,3.1,108.30058970848685,110.56958262386708,64.18164086721099,83.58024551855456,117.60280449427222,185.67327067413098,3,NA,1.77500319480896,1
10,1,77,critical,whd,45,lower,3,3.1,57,133,133,57,65,65,2,h,4.394901752471924,1
10,1,78,filler_random,NA,NA,NA,3,3.1,145.44643326099853,80.51359683131483,103.25882366189441,157.174176359736,194.13032927059345,148.1413318046834,3,NA,2.44124174118042,1
10,1,79,critical,dhw,45,upper,2.1,2.12,117,117,200,125,125,200,2,h,2.2036893367767334,1
10,1,80,critical,dwh,60,lower,3,3.1,55,55,57,133,133,57,2,w,4.130079507827759,1
10,1,81,filler_random,NA,NA,NA,4,4.1,58.54358844282092,195.96822486174716,103.01252317343003,73.42456916441978,97.18553806574026,122.54547270259289,1,NA,2.7409374713897705,0
10,1,82,critical,dwh,45,lower,2.1,2.11,65,65,57,133,133,57,3,h,4.09893536567688,1
10,1,83,critical,hwd,45,upper,4,4.1,200,125,125,200,117,117,1,h,2.92409348487854,1
10,1,84,filler_random,NA,NA,NA,4,4.2,96.1328681920828,59.26392242574789,193.48039196692224,133.4918813806396,64.30020041640692,114.3853386956189,2,NA,1.291292667388916,1
10,1,85,filler_square,NA,NA,NA,2.2,2.22,69.87426231074961,58.33386519014757,59.03897394748735,64.5020362960556,75.10624934207067,75.10624934207067,3,NA,2.6655588150024414,1
10,1,86,filler_random,NA,NA,NA,2.2,2.21,66.76772364884815,184.00823470886849,129.1673441267199,172.08556337906336,113.21692199347223,142.59133027512456,2,NA,2.096411943435669,1
10,1,87,critical,dhw,60,lower,2.1,2.11,55,55,133,57,57,133,2,h,2.049832582473755,1
10,1,88,critical,dhw,60,upper,4,4.2,100,100,200,125,125,200,2,h,2.3071517944335938,1
10,1,89,filler_square,NA,NA,NA,4,4.2,159.1018011261796,159.1018011261796,138.8233277080231,149.49882689305417,112.47057670925643,72.47497526988867,1,NA,1.0229439735412598,1
10,1,90,filler_random,NA,NA,NA,3,3.1,122.68874927918388,123.84376626466931,96.8419580644845,197.4380537424837,111.062764613567,65.76359284302421,2,NA,1.8458662033081055,1
10,1,91,critical,wdh,45,lower,1,1.3,57,133,65,65,133,57,3,h,3.0985360145568848,1
10,1,92,catch,NA,NA,NA,2.2,2.22,130,60,172,153,79,111,2,NA,1.0155093669891357,1
10,1,93,critical,dhw,60,upper,2.1,2.12,100,100,200,125,125,200,3,w,3.9922685623168945,1
10,1,94,critical,whd,45,lower,2.1,2.12,57,133,133,57,65,65,2,h,3.1688616275787354,1
10,1,95,critical,whd,45,lower,2.1,2.12,57,133,133,57,65,65,2,h,1.4517409801483154,1
10,1,96,filler_random,NA,NA,NA,2.1,2.12,80.24570372045636,195.28500946975038,130.96832539077974,93.80723363272745,114.42970331282258,117.3381190876932,2,NA,6.057503700256348,0
10,1,97,critical,dhw,45,upper,1,1.1,117,117,200,125,125,200,3,w,5.739057302474976,1
10,1,98,critical,hdw,45,upper,2.1,2.11,200,125,117,117,125,200,1,h,4.831408500671387,1
10,1,99,critical,wdh,60,lower,3,3.2,57,133,55,55,133,57,3,h,1.8246314525604248,1
10,1,100,catch,NA,NA,NA,4,4.1,68,122,164,161,62,128,2,NA,1.6335515975952148,1
10,1,101,critical,wdh,60,upper,2.1,2.12,125,200,100,100,200,125,3,h,3.530776023864746,1
10,1,102,filler_random,NA,NA,NA,3,3.2,113.57699391989892,96.81961248710596,148.43331135020856,85.06930095278716,60.619214006922654,155.2283581319678,2,NA,2.6200082302093506,1
10,1,103,critical,wdh,60,lower,1,1.3,57,133,55,55,133,57,3,h,4.597536325454712,1
10,1,104,critical,wdh,60,lower,2.1,2.11,57,133,55,55,133,57,3,h,1.2615408897399902,1
10,1,105,critical,dhw,45,upper,2.1,2.12,117,117,200,125,125,200,2,h,2.7224111557006836,1
10,1,106,critical,hdw,45,lower,2.1,2.12,133,57,65,65,57,133,1,h,2.1724298000335693,1
10,1,107,filler_random,NA,NA,NA,4,4.1,171.2009009957066,100.6010440317533,181.526374292934,59.07480023605104,80.71614303982717,124.29972053558396,1,NA,3.1806082725524902,1
10,1,108,critical,dhw,60,upper,1,1.2,100,100,200,125,125,200,2,h,6.722712516784668,1
10,1,109,filler_random,NA,NA,NA,4,4.2,95.76087617842546,65.13399499222402,161.39812176583803,149.9086938934817,163.6506384415669,196.2384906923323,3,NA,1.8663196563720703,1
10,1,110,critical,whd,60,upper,3,3.2,125,200,200,125,100,100,1,w,2.708453893661499,1
10,1,111,filler_random,NA,NA,NA,2.1,2.11,104.16217002533507,159.90518664361957,90.45810418423645,105.13986187743114,101.82717038975407,79.614210560769,1,NA,1.455183506011963,1
10,1,112,critical,hdw,60,upper,2.1,2.11,200,125,100,100,125,200,3,w,3.3114848136901855,1
10,1,113,critical,hdw,60,upper,3,3.2,200,125,100,100,125,200,3,w,1.814448356628418,1
10,1,114,critical,hwd,60,upper,1,1.2,200,125,125,200,100,100,2,w,2.4432356357574463,1
10,1,115,filler_square,NA,NA,NA,1,1.3,108.51760228889549,78.25517943341433,197.35946755891288,197.35946755891288,71.66557643794839,186.469432271141,2,NA,1.3002314567565918,1
10,1,116,filler_random,NA,NA,NA,2.2,2.22,125.26473883871014,129.19898875315755,144.48275681039644,168.029999543079,96.83868545031916,125.93738970588919,2,NA,1.1774044036865234,1
10,1,117,filler_square,NA,NA,NA,2.1,2.11,76.41858588275706,121.4321816865115,123.74989659132015,123.74989659132015,89.96897562995167,90.347402442992,2,NA,1.803123950958252,1
10,1,118,critical,wdh,45,lower,2.1,2.11,57,133,65,65,133,57,1,w,3.0508792400360107,1
10,1,119,critical,dwh,60,upper,3,3.1,100,100,125,200,200,125,3,h,4.067212104797363,1
10,1,120,critical,dhw,45,lower,4,4.1,65,65,133,57,57,133,2,h,3.199587106704712,1
10,1,121,critical,dwh,60,lower,2.1,2.11,55,55,57,133,133,57,2,w,5.817974805831909,1
10,1,122,critical,hdw,45,upper,2.1,2.11,200,125,117,117,125,200,1,h,2.102220058441162,1
10,1,123,filler_square,NA,NA,NA,2.1,2.11,187.81429383977505,187.81429383977505,126.00370605250136,99.1889232772468,65.64899575828672,157.80285269756786,1,NA,1.1750717163085938,1
10,1,124,filler_random,NA,NA,NA,1,1.1,116.6070976777204,73.81358445750931,77.80543556714505,75.3448817200015,70.75455169596916,173.58421409362893,3,NA,1.8466813564300537,1
10,1,125,filler_random,NA,NA,NA,3,3.2,104.99614593131002,78.1826088997036,147.60235148763763,188.27908924699193,83.1839842167134,99.81062306215458,2,NA,1.5849370956420898,1
10,1,126,critical,dwh,45,lower,1,1.2,65,65,57,133,133,57,3,h,1.9861347675323486,1
10,1,127,critical,hdw,60,lower,3,3.2,133,57,55,55,57,133,1,h,1.6561172008514404,1
10,1,128,filler_square,NA,NA,NA,3,3.1,108.20476001771814,108.20476001771814,82.33294581787057,100.26257468734275,74.0944975018354,59.11373403621021,1,NA,1.456895351409912,1
10,1,129,filler_random,NA,NA,NA,2.1,2.12,193.78490283945115,114.0333017144939,198.68618400558347,122.40321454408783,90.27292020255744,113.05526211796922,2,NA,1.475161075592041,1
10,1,130,critical,hdw,45,upper,3,3.1,200,125,117,117,125,200,3,w,2.234520196914673,1
10,1,131,filler_square,NA,NA,NA,3,3.2,74.22071263645262,81.35290671818538,58.901614476085086,67.75862600472425,105.05445444528252,105.05445444528252,3,NA,1.1103274822235107,1
10,1,132,critical,hdw,45,upper,4,4.2,200,125,117,117,125,200,1,h,2.350403308868408,1
10,1,133,critical,dhw,45,upper,4,4.1,117,117,200,125,125,200,3,w,1.7025699615478516,1
10,1,134,critical,hdw,60,lower,1,1.1,133,57,55,55,57,133,1,h,1.7918951511383057,1
10,1,135,critical,hwd,60,upper,4,4.2,200,125,125,200,100,100,2,w,1.8100039958953857,1
10,1,136,critical,dwh,45,lower,2.1,2.11,65,65,57,133,133,57,3,h,2.2150442600250244,1
10,1,137,filler_random,NA,NA,NA,2.2,2.21,121.08291142369882,62.56176414653055,193.37560008781313,69.31100686625713,85.0404742709967,95.80328781917646,2,NA,1.12833833694458,1
10,1,138,critical,wdh,45,lower,3,3.2,57,133,65,65,133,57,3,h,3.2690370082855225,1
10,1,139,critical,dhw,60,lower,3,3.2,55,55,133,57,57,133,2,h,1.073953628540039,1
10,1,140,filler_square,NA,NA,NA,2.2,2.21,137.0869089330277,94.58547339709347,167.41824973618844,167.41824973618844,163.61444247920892,138.9232295606549,2,NA,1.4274718761444092,1
10,1,141,critical,wdh,45,upper,3,3.1,125,200,117,117,200,125,3,h,1.9441351890563965,1
10,1,142,critical,whd,60,upper,1,1.3,125,200,200,125,100,100,2,h,1.5936219692230225,1
10,1,143,critical,dhw,45,upper,3,3.1,117,117,200,125,125,200,3,w,2.122185468673706,1
10,1,144,critical,dhw,45,lower,1,1.1,65,65,133,57,57,133,2,h,2.090160846710205,1
10,1,145,critical,dhw,60,lower,4,4.2,55,55,133,57,57,133,2,h,1.3342821598052979,1
10,1,146,critical,dhw,45,lower,2.1,2.11,65,65,133,57,57,133,2,h,1.6042661666870117,1
10,1,147,filler_square,NA,NA,NA,4,4.2,139.1239442590989,106.56133806036125,105.09950130443742,99.04837950620674,139.7593066318299,139.7593066318299,3,NA,1.1791226863861084,1
10,1,148,critical,hwd,45,upper,2.1,2.11,200,125,125,200,117,117,1,h,2.2819952964782715,1
10,1,149,critical,wdh,45,upper,2.1,2.11,125,200,117,117,200,125,1,w,1.6749341487884521,1
10,1,150,filler_random,NA,NA,NA,2.1,2.12,100.09799069550024,146.9604412267795,58.9439414195369,182.22079044446645,118.73283128893118,161.72243488067556,3,NA,1.7097535133361816,1
10,1,151,critical,hwd,45,upper,2.1,2.12,200,125,125,200,117,117,2,w,2.0186967849731445,1
10,1,152,critical,hdw,60,upper,2.1,2.11,200,125,100,100,125,200,1,h,2.1835343837738037,1
10,1,153,critical,dwh,60,lower,2.1,2.12,55,55,57,133,133,57,3,h,1.9908759593963623,1
10,1,154,critical,wdh,60,upper,3,3.1,125,200,100,100,200,125,3,h,2.5431103706359863,1
10,1,155,critical,hwd,60,lower,1,1.1,133,57,57,133,55,55,1,h,1.9567620754241943,1
10,1,156,critical,hwd,45,lower,3,3.1,133,57,57,133,65,65,2,w,3.5338611602783203,1
10,1,157,critical,whd,60,lower,4,4.2,57,133,133,57,55,55,2,h,3.0389270782470703,1
10,1,158,catch,NA,NA,NA,2.2,2.22,84,106,160,165,104,86,2,NA,0.9877097606658936,1
10,1,159,critical,hdw,60,upper,4,4.2,200,125,100,100,125,200,3,w,1.7130193710327148,1
10,1,160,filler_square,NA,NA,NA,3,3.2,61.42569188140962,80.04547093838829,80.56848161558091,80.56848161558091,76.04221545385033,68.4904279405503,2,NA,2.7948098182678223,1
10,1,161,filler_random,NA,NA,NA,2.2,2.21,114.72104538780478,168.6094163033469,73.84819569199333,124.67795380706782,94.44639875813445,149.77804289780119,1,NA,3.2502024173736572,1
10,1,162,critical,hwd,45,lower,1,1.2,133,57,57,133,65,65,1,h,2.516151189804077,1
10,1,163,filler_square,NA,NA,NA,4,4.2,77.34202362161352,77.34202362161352,63.99770121742422,66.76331018194414,66.52983186199192,69.64000336547883,1,NA,1.8800921440124512,1
10,1,164,critical,dhw,60,upper,2.1,2.11,100,100,200,125,125,200,3,w,3.564279079437256,1
10,1,165,critical,hwd,60,upper,2.1,2.12,200,125,125,200,100,100,2,w,1.858558177947998,1
10,1,166,critical,whd,45,lower,4,4.1,57,133,133,57,65,65,2,h,1.720729112625122,1
10,1,167,critical,whd,60,upper,2.1,2.12,125,200,200,125,100,100,2,h,2.1551809310913086,1
10,1,168,critical,dwh,60,lower,4,4.1,55,55,57,133,133,57,3,h,1.761875867843628,1
10,1,169,filler_square,NA,NA,NA,4,4.1,77.50241592290774,167.38647286548655,188.17891002955477,188.17891002955477,119.51146889178605,96.63079670741337,2,NA,0.9850764274597168,1
10,1,170,filler_square,NA,NA,NA,1,1.3,101.47617012966583,113.54022395570189,87.52245712535661,120.40735490877543,120.7419830734047,120.7419830734047,3,NA,1.4317066669464111,1
10,1,171,critical,whd,45,upper,2.1,2.11,125,200,200,125,117,117,2,h,1.7119247913360596,1
10,1,172,filler_square,NA,NA,NA,2.1,2.12,87.40237212447241,87.40237212447241,57.36006952999843,85.87460592538139,72.69602141367244,80.71716522714337,1,NA,2.0248162746429443,1
10,1,173,critical,hdw,45,upper,1,1.2,200,125,117,117,125,200,3,w,1.7425439357757568,1
10,1,174,critical,dhw,60,lower,2.1,2.11,55,55,133,57,57,133,2,h,1.5654215812683105,1
10,1,175,critical,whd,60,lower,3,3.2,57,133,133,57,55,55,2,h,1.2060718536376953,1
10,1,176,critical,hdw,60,upper,1,1.2,200,125,100,100,125,200,3,w,2.6674702167510986,1
10,1,177,critical,wdh,60,upper,4,4.1,125,200,100,100,200,125,1,w,2.802184581756592,1
10,1,178,critical,dwh,45,upper,2.1,2.12,117,117,125,200,200,125,3,h,1.4992899894714355,1
10,1,179,filler_square,NA,NA,NA,3,3.1,68.29457535022135,95.50855469190014,143.35773558336206,143.35773558336206,68.50860989937678,104.26913992835912,2,NA,1.12593412399292,1
10,1,180,critical,wdh,45,lower,4,4.2,57,133,65,65,133,57,3,h,1.9841418266296387,1
10,1,181,critical,whd,60,lower,2.1,2.11,57,133,133,57,55,55,2,h,0.8795278072357178,1
10,1,182,critical,hwd,45,lower,4,4.1,133,57,57,133,65,65,1,h,1.4111907482147217,1
10,1,183,filler_random,NA,NA,NA,3,3.2,141.05539438249417,171.90277542097527,92.7794447067426,160.61439789928107,107.75665018556043,158.7211634401997,1,NA,1.5027852058410645,1
10,1,184,critical,wdh,60,upper,2.1,2.11,125,200,100,100,200,125,1,w,1.8487260341644287,1
10,1,185,critical,dhw,60,upper,3,3.1,100,100,200,125,125,200,3,w,1.8326878547668457,1
10,1,186,filler_random,NA,NA,NA,2.2,2.22,185.41440211021666,172.97457909637444,97.53850486169232,143.5515053410448,84.15321819117337,183.02436020324305,1,NA,1.2647733688354492,1
10,1,187,catch,NA,NA,NA,3,3.1,78,112,79,111,126,199,3,NA,1.0513243675231934,1
10,1,188,catch,NA,NA,NA,3,3.1,66,124,79,111,180,145,3,NA,0.9217836856842041,1
10,1,189,filler_square,NA,NA,NA,2.2,2.21,82.75744354075209,74.6942190934639,83.08334483133467,83.08334483133467,61.69773951687347,70.6399338484787,2,NA,2.869361400604248,1
10,1,190,critical,hdw,60,lower,2.1,2.11,133,57,55,55,57,133,1,h,0.8125128746032715,1
10,1,191,critical,whd,45,upper,3,3.1,125,200,200,125,117,117,2,h,1.899904489517212,1
10,1,192,critical,hwd,45,upper,3,3.1,200,125,125,200,117,117,2,w,1.3132386207580566,1
10,1,193,critical,wdh,60,lower,2.1,2.12,57,133,55,55,133,57,3,h,1.0071947574615479,1
10,1,194,critical,hwd,60,lower,4,4.2,133,57,57,133,55,55,1,h,1.7929599285125732,1
10,1,195,critical,dwh,45,upper,1,1.1,117,117,125,200,200,125,2,w,2.4478373527526855,1
10,1,196,critical,dwh,60,upper,2.1,2.11,100,100,125,200,200,125,2,w,1.463559627532959,1
10,1,197,critical,whd,60,upper,2.1,2.12,125,200,200,125,100,100,2,h,1.0964431762695312,1
10,1,198,filler_square,NA,NA,NA,4,4.2,150.08281533878954,150.08281533878954,147.05059551083554,97.0650919573637,75.11460894542591,121.46109144768181,1,NA,1.4448370933532715,1
10,1,199,filler_square,NA,NA,NA,2.1,2.12,79.97400709430102,106.42889820999291,129.35697568815277,129.35697568815277,89.95450131151127,91.47834219094827,2,NA,1.1119439601898193,1
10,1,200,filler_square,NA,NA,NA,3,3.1,104.35174948649436,68.99535748346544,115.33637060201914,115.33637060201914,78.42137619673846,112.9868407950624,2,NA,1.3282809257507324,1
10,1,201,filler_random,NA,NA,NA,1,1.1,160.34825918890158,173.25727533681464,166.0725837469335,136.14189156769493,61.10926612896322,84.7225834031261,2,NA,1.5559470653533936,0
10,1,202,filler_random,NA,NA,NA,2.2,2.22,92.3655603296987,126.6046653440931,150.6405386347423,73.31909912448624,190.691978191151,105.27166927780644,3,NA,1.1775379180908203,1
10,1,203,filler_square,NA,NA,NA,2.1,2.12,62.63953838223753,73.37257050881263,91.64726732652599,91.64726732652599,85.5431777508143,90.81055891260628,2,NA,0.987074613571167,1
10,1,204,critical,wdh,45,upper,1,1.2,125,200,117,117,200,125,3,h,1.2022888660430908,1
10,1,205,critical,hwd,45,upper,1,1.3,200,125,125,200,117,117,2,w,1.4860038757324219,1
10,1,206,filler_random,NA,NA,NA,3,3.1,59.28512724538544,156.9847891665127,124.86032442004597,194.78321234703404,104.69925985100912,157.51747230930036,2,NA,1.711047649383545,1
10,1,207,filler_random,NA,NA,NA,2.2,2.22,184.70745301067927,171.24762450399805,119.05257961569754,159.27657291943183,116.96827873149348,124.32423689428505,1,NA,0.998659610748291,1
10,1,208,critical,hwd,60,upper,3,3.2,200,125,125,200,100,100,2,w,1.9731838703155518,1
10,1,209,catch,NA,NA,NA,2.2,2.22,76,114,82,108,156,169,3,NA,1.91450834274292,1
10,1,210,critical,hdw,60,lower,2.1,2.11,133,57,55,55,57,133,1,h,1.1425716876983643,1
10,2,1,critical,hwd,45,upper,1,1.2,200,125,125,200,117,117,1,h,2.816704034805298,1
10,2,2,critical,hwd,60,upper,4,4.2,200,125,125,200,100,100,2,w,0.9878926277160645,1
10,2,3,filler_random,NA,NA,NA,3,3.2,72.15621855300847,148.12928632461893,165.47486345361142,83.37650932070912,144.99070517255893,88.86964914874224,3,NA,1.5866625308990479,0
10,2,4,critical,dhw,45,upper,2.1,2.11,117,117,200,125,125,200,2,h,1.6657233238220215,1
10,2,5,critical,dhw,60,lower,3,3.2,55,55,133,57,57,133,2,h,1.0336494445800781,1
10,2,6,filler_square,NA,NA,NA,2.1,2.11,59.9617897186875,62.637015322588226,70.73311259221121,70.73311259221121,64.76198651046685,69.02893057936191,2,NA,1.445286750793457,1
10,2,7,critical,whd,45,upper,3,3.1,125,200,200,125,117,117,2,h,1.2900047302246094,1
10,2,8,catch,NA,NA,NA,1,1.1,110,80,107,83,177,148,3,NA,0.9482402801513672,1
10,2,9,critical,hwd,45,upper,2.1,2.12,200,125,125,200,117,117,2,w,1.7117135524749756,1
10,2,10,critical,hwd,60,upper,1,1.3,200,125,125,200,100,100,2,w,0.875840425491333,1
10,2,11,critical,dhw,60,upper,3,3.2,100,100,200,125,125,200,3,w,1.3384451866149902,1
10,2,12,catch,NA,NA,NA,3,3.1,84,106,104,86,181,144,3,NA,1.090698003768921,1
10,2,13,critical,whd,45,lower,1,1.1,57,133,133,57,65,65,1,w,1.9448223114013672,1
10,2,14,filler_square,NA,NA,NA,1,1.3,137.85414264171675,137.85414264171675,82.70164280237744,86.43846683038636,96.57205992069586,116.05585228172691,1,NA,1.087496042251587,1
10,2,15,critical,dhw,60,upper,2.1,2.11,100,100,200,125,125,200,3,w,1.5447063446044922,1
10,2,16,filler_square,NA,NA,NA,4,4.1,193.79540076764434,106.36915201845554,113.15547246082707,152.58102305708894,197.4624750581278,197.4624750581278,3,NA,0.9935638904571533,1
10,2,17,filler_random,NA,NA,NA,3,3.2,102.7816777269966,122.02320562967468,93.49684414076941,95.3291248629761,177.9093334339892,137.99804119438707,3,NA,1.1679472923278809,1
10,2,18,critical,dwh,60,upper,2.1,2.12,100,100,125,200,200,125,2,w,0.9530370235443115,1
10,2,19,critical,dhw,45,lower,2.1,2.11,65,65,133,57,57,133,1,d,1.80000901222229,0
10,2,20,filler_random,NA,NA,NA,2.2,2.22,121.73918851444466,65.7023671245951,123.32202726811487,154.4480875880691,86.56117060668278,101.63715830955303,2,NA,2.2940075397491455,1
10,2,21,filler_square,NA,NA,NA,4,4.2,57.63033337456753,58.61390999550968,58.7732360490613,58.214861305076916,59.244840922414696,59.244840922414696,2,NA,2.88104510307312,0
10,2,22,filler_square,NA,NA,NA,1,1.2,61.208685557364056,77.0790991186449,92.54896284228678,58.00595777412965,100.86470387602418,100.86470387602418,3,NA,0.879321813583374,1
10,2,23,filler_random,NA,NA,NA,4,4.1,190.46876378409652,99.50582849063449,192.31943088212736,99.04992472729634,179.1102509007498,93.56800706458475,1,NA,3.3241052627563477,0
10,2,24,critical,dwh,60,lower,2.1,2.12,55,55,57,133,133,57,3,h,1.4326443672180176,1
10,2,25,catch,NA,NA,NA,2.1,2.11,82,108,59,131,140,185,3,NA,1.5074727535247803,1
10,2,26,critical,whd,60,lower,3,3.1,57,133,133,57,55,55,2,h,1.464794397354126,1
10,2,27,filler_random,NA,NA,NA,2.1,2.12,62.857006556544306,152.04753996936893,138.32937354384697,160.26502245207757,150.44177802377328,65.12274229133097,2,NA,0.9273645877838135,1
10,2,28,critical,dwh,45,lower,4,4.1,65,65,57,133,133,57,3,h,1.467714548110962,1
10,2,29,critical,hwd,45,upper,2.1,2.11,200,125,125,200,117,117,2,w,2.1049582958221436,1
10,2,30,critical,hdw,45,lower,1,1.3,133,57,65,65,57,133,3,w,1.4969499111175537,1
10,2,31,critical,wdh,60,upper,1,1.1,125,200,100,100,200,125,3,h,1.1831958293914795,1
10,2,32,filler_random,NA,NA,NA,2.1,2.11,136.61705244744073,108.72972384890409,141.50802237529035,122.7251160208469,150.9658405805459,90.0350893009341,3,NA,1.285341739654541,0
10,2,33,critical,wdh,60,lower,2.1,2.12,57,133,55,55,133,57,3,h,1.2005839347839355,1
10,2,34,critical,wdh,45,lower,1,1.2,57,133,65,65,133,57,3,h,1.2999742031097412,1
10,2,35,filler_square,NA,NA,NA,1,1.3,68.55315351946014,137.58267925809338,150.7502707303821,150.7502707303821,95.44122203886852,106.08202678586314,2,NA,0.9490303993225098,1
10,2,36,filler_random,NA,NA,NA,3,3.2,90.21133384012543,160.5692958346403,140.7129211953507,178.1454852438643,103.4851088767904,170.1564468765998,2,NA,1.0873265266418457,1
10,2,37,filler_random,NA,NA,NA,1,1.1,89.66063740800706,149.7672193234174,84.80628429792307,185.93234504536406,95.99381324391021,188.14423557796115,3,NA,1.3187141418457031,1
10,2,38,filler_square,NA,NA,NA,4,4.1,110.76534069476085,110.76534069476085,98.8336848602337,94.67941039050515,98.0136156095299,102.1063564670998,1,NA,2.7129592895507812,1
10,2,39,filler_square,NA,NA,NA,3,3.2,177.74553945263835,57.73233680948316,196.4396512549353,196.4396512549353,96.45594583551463,107.71591784032746,2,NA,0.8311278820037842,1
10,2,40,critical,hdw,45,upper,1,1.1,200,125,117,117,125,200,3,w,1.351045846939087,1
10,2,41,critical,whd,45,lower,2.1,2.11,57,133,133,57,65,65,2,h,1.3569936752319336,1
10,2,42,filler_random,NA,NA,NA,2.1,2.12,184.6956870139607,172.38548834044707,90.35944801599038,166.84832900466347,79.68023873187481,156.12762892481766,1,NA,1.1148676872253418,1
10,2,43,filler_square,NA,NA,NA,3,3.1,65.62281558081024,87.81352047460368,122.26165239084695,122.26165239084695,79.45448241334138,57.948733186603725,2,NA,0.9090926647186279,1
10,2,44,critical,dwh,60,lower,2.1,2.12,55,55,57,133,133,57,3,h,1.9193835258483887,1
10,2,45,catch,NA,NA,NA,4,4.2,93,97,131,194,119,71,2,NA,0.8424484729766846,1
10,2,46,filler_random,NA,NA,NA,3,3.1,158.5999849103896,83.0069531002047,141.88526051743605,125.29922294724133,147.84347172615986,182.6482906033852,3,NA,0.88074493408203125,1
10,2,47,critical,dwh,60,upper,3,3.2,100,100,125,200,200,125,2,w,1.2061216831207275,1
10,2,48,filler_square,NA,NA,NA,2.1,2.12,136.85005171920835,113.61880404507471,160.206839828001,160.206839828001,150.08194029547474,154.57546316689712,2,NA,1.6499741077423096,1
10,2,49,critical,wdh,60,lower,1,1.2,57,133,55,55,133,57,3,h,2.9174118041992188,1
10,2,50,critical,whd,45,lower,3,3.1,57,133,133,57,65,65,2,h,1.2333571910858154,1
10,2,51,filler_random,NA,NA,NA,3,3.2,83.5815398544409,59.042017117302514,86.50368593398437,69.14276921939954,153.203429578941,178.93128496748884,3,NA,0.8517813682556152,1
10,2,52,critical,hwd,45,lower,3,3.2,133,57,57,133,65,65,1,h,1.6157941818237305,1
10,2,53,critical,whd,60,lower,2.1,2.11,57,133,133,57,55,55,2,h,0.9768862724304199,1
10,2,54,critical,wdh,45,lower,2.1,2.11,57,133,65,65,133,57,3,h,1.0070931911468506,1
10,2,55,critical,whd,60,lower,1,1.3,57,133,133,57,55,55,2,h,1.2252271175384521,1
10,2,56,critical,hdw,45,lower,2.1,2.12,133,57,65,65,57,133,1,h,1.1143231391906738,1
10,2,58,critical,dwh,45,upper,4,4.2,117,117,125,200,200,125,2,w,1.8017799854278564,1
10,2,59,filler_random,NA,NA,NA,2.1,2.12,111.38149014427553,152.36724853137287,62.98074371213517,121.40122332769212,186.66872892145602,191.7878983178647,3,NA,1.0427839756011963,1
10,2,60,filler_random,NA,NA,NA,3,3.2,131.51990771535998,172.26491218661675,166.06219889716442,162.72522813369815,103.65225329944641,115.98305410492537,2,NA,1.2890563011169434,1
10,2,61,critical,whd,45,upper,1,1.3,125,200,200,125,117,117,2,h,2.1976163387298584,1
10,2,62,critical,whd,60,upper,3,3.1,125,200,200,125,100,100,2,h,1.083582878112793,1
10,2,63,catch,NA,NA,NA,2.1,2.12,64,126,132,58,160,165,3,NA,0.8397035598754883,1
10,2,64,critical,wdh,60,upper,4,4.2,125,200,100,100,200,125,3,h,1.1143786907196045,1
10,2,65,filler_random,NA,NA,NA,2.2,2.21,93.48932227580113,149.6512115239774,124.23186108187282,140.71678979270092,60.996115780202956,129.26352271100586,2,NA,1.9288880825042725,1
10,2,66,critical,hwd,60,upper,3,3.1,200,125,125,200,100,100,2,w,1.4801788330078125,1
10,2,67,critical,hdw,60,lower,4,4.1,133,57,55,55,57,133,3,w,1.3947455883026123,1
10,2,68,critical,hdw,60,lower,3,3.1,133,57,55,55,57,133,1,h,1.3917698860168457,1
10,2,69,critical,dwh,60,upper,2.1,2.11,100,100,125,200,200,125,3,h,2.074110269546509,1
10,2,70,filler_random,NA,NA,NA,4,4.2,105.47607558060332,125.53669057465488,170.29608102822306,89.19128161703927,100.9605110206137,154.8640297772331,3,NA,1.1279051303863525,1
10,2,71,filler_random,NA,NA,NA,2.1,2.11,194.12603451688275,178.5685154578735,181.9055110936869,138.32320323842566,185.4547519298594,96.07770391458689,1,NA,1.5092544555664062,1
10,2,72,critical,hwd,45,lower,4,4.2,133,57,57,133,65,65,1,h,1.4925949573516846,1
10,2,73,critical,dwh,45,lower,1,1.2,65,65,57,133,133,57,3,h,0.8838391304016113,1
10,2,74,critical,wdh,45,upper,2.1,2.12,125,200,117,117,200,125,1,w,2.348569631576538,1
10,2,75,filler_square,NA,NA,NA,4,4.2,131.34859211199137,84.608678056918,189.70288523941593,189.70288523941593,182.35613422973782,155.33721772458014,2,NA,1.453791618347168,1
10,2,76,critical,hdw,45,upper,4,4.1,200,125,117,117,125,200,1,h,1.2278881072998047,1
10,2,77,filler_random,NA,NA,NA,4,4.1,196.78879736477276,115.16779587111947,95.52784139815196,139.53433408205368,90.23416623195587,150.1061644502722,1,NA,1.1773855686187744,1
10,2,78,critical,wdh,60,lower,4,4.2,57,133,55,55,133,57,3,h,1.5465383529663086,1
10,2,79,critical,dwh,60,upper,1,1.2,100,100,125,200,200,125,3,h,1.6512277126312256,1
10,2,80,filler_square,NA,NA,NA,3,3.1,108.70534965124196,112.49831196658812,118.81709895259812,118.81709895259812,83.33687987184588,102.6500300818982,2,NA,1.5105969905853271,1
10,2,81,critical,wdh,45,upper,3,3.1,125,200,117,117,200,125,3,h,1.0524499416351318,1
10,2,82,filler_random,NA,NA,NA,4,4.1,98.67818894544286,96.68828278021186,57.41175510276814,148.2758186485326,130.26285656556905,186.79858542012576,3,NA,0.9960076808929443,1
10,2,83,critical,whd,60,lower,2.1,2.11,57,133,133,57,55,55,2,h,1.33034086227417,1
10,2,84,critical,dwh,45,lower,2.1,2.12,65,65,57,133,133,57,3,h,1.0367145538330078,1
10,2,85,critical,dhw,60,upper,1,1.2,100,100,200,125,125,200,2,h,0.9491658210754395,1
10,2,86,filler_random,NA,NA,NA,2.2,2.21,190.31750435739818,133.4825591551957,199.9747952627703,155.74218049314874,115.82665557016627,160.52010466284997,2,NA,2.159900665283203,1
10,2,87,critical,dhw,60,upper,4,4.1,100,100,200,125,125,200,3,w,1.0790700912475586,1
10,2,88,filler_square,NA,NA,NA,4,4.2,91.23666006873482,146.64674197502836,168.1539941689924,168.1539941689924,62.07112917919697,151.58228464423274,2,NA,0.9247796535491943,1
10,2,89,critical,hwd,60,upper,2.1,2.11,200,125,125,200,100,100,1,h,3.8375325202941895,1
10,2,90,critical,hdw,60,upper,2.1,2.12,200,125,100,100,125,200,3,w,1.1543595790863037,1
10,2,91,critical,dhw,60,lower,2.1,2.12,55,55,133,57,57,133,2,h,1.4277918338775635,1
10,2,92,critical,wdh,45,upper,1,1.3,125,200,117,117,200,125,3,h,1.2736902236938477,1
10,2,93,filler_random,NA,NA,NA,4,4.1,178.6357938253152,161.44346424766812,181.33394266779052,177.92731671441504,116.84485502275695,158.03866453621782,1,NA,2.128349542617798,0
10,2,94,critical,whd,45,lower,2.1,2.12,57,133,133,57,65,65,2,h,1.0825245380401611,1
10,2,95,critical,hdw,45,upper,2.1,2.12,200,125,117,117,125,200,1,h,1.4804127216339111,1
10,2,96,critical,wdh,60,upper,2.1,2.12,125,200,100,100,200,125,1,w,1.0678062438964844,1
10,2,97,filler_random,NA,NA,NA,1,1.2,72.45138928761301,183.19483075523374,123.75208477675899,108.38402749632326,118.22611825686016,138.60643284443,3,NA,1.676598072052002,1
10,2,98,critical,dwh,60,upper,4,4.2,100,100,125,200,200,125,3,h,1.6421492099761963,1
10,2,99,filler_square,NA,NA,NA,2.2,2.22,99.61877872852713,103.1596245520713,70.35537590795829,194.56049491799828,197.68086731839637,197.68086731839637,3,NA,1.1425917148590088,1
10,2,100,critical,wdh,45,lower,4,4.1,57,133,65,65,133,57,3,h,1.54109525680542,1
10,2,101,critical,whd,60,upper,4,4.1,125,200,200,125,100,100,1,w,1.568897008895874,1
10,2,102,critical,hwd,60,lower,1,1.3,133,57,57,133,55,55,1,h,1.9657135009765625,1
10,2,103,critical,dhw,45,lower,4,4.1,65,65,133,57,57,133,2,h,1.2542870044708252,1
10,2,104,critical,wdh,60,upper,2.1,2.12,125,200,100,100,200,125,1,w,1.9078493118286133,1
10,2,105,catch,NA,NA,NA,4,4.1,125,65,183,142,81,109,2,NA,1.0922513008117676,1
10,2,106,catch,NA,NA,NA,4,4.1,122,68,82,108,187,138,3,NA,0.8501729965209961,1
10,2,107,filler_random,NA,NA,NA,3,3.2,169.63252922501857,151.2391917970381,105.22712137970242,124.37076621284285,83.25103301008932,75.3218039773696,1,NA,3.074035406112671,1
10,2,108,critical,dhw,45,upper,4,4.1,117,117,200,125,125,200,3,w,1.1664299964904785,1
10,2,109,critical,hdw,60,upper,4,4.1,200,125,100,100,125,200,1,h,1.1749913692474365,1
10,2,110,filler_random,NA,NA,NA,3,3.2,192.9990202341586,109.68387540204623,58.80560953559904,198.3636436278953,183.86845658189569,81.26257270790431,1,NA,1.555424451828003,1
10,2,111,critical,hdw,45,lower,2.1,2.11,133,57,65,65,57,133,1,h,3.1741104125976562,1
10,2,112,filler_square,NA,NA,NA,1,1.1,153.3466850847286,120.0347397011266,165.1404603598094,165.1404603598094,70.7681003723105,158.65896822581382,2,NA,0.8771274089813232,1
10,2,113,critical,wdh,45,upper,4,4.2,125,200,117,117,200,125,1,w,3.4965415000915527,1
10,2,114,filler_square,NA,NA,NA,1,1.3,183.965286066879,183.965286066879,137.81347682820666,146.0089115387081,173.9572522359311,78.63954538501442,1,NA,1.2835309505462646,1
10,2,115,critical,dhw,60,lower,2.1,2.11,55,55,133,57,57,133,2,h,1.4064161777496338,1
10,2,116,filler_random,NA,NA,NA,2.2,2.22,144.5171990058666,184.88189145992737,74.5552027334,111.33690249697324,168.9788394893375,86.92779599273685,1,NA,1.1088192462921143,1
10,2,117,critical,wdh,60,lower,2.1,2.12,57,133,55,55,133,57,3,h,1.7650196552276611,1
10,2,118,catch,NA,NA,NA,3,3.1,105,85,162,163,98,92,2,NA,0.7704334259033203,1
10,2,119,critical,dhw,60,lower,4,4.1,55,55,133,57,57,133,2,h,1.502903938293457,1
10,2,120,critical,hwd,60,lower,2.1,2.11,133,57,57,133,55,55,1,h,1.5518701076507568,1
10,2,121,filler_square,NA,NA,NA,4,4.2,63.630973275848525,60.290870108885954,68.33915827602353,65.12237378983092,68.79601069894231,68.79601069894231,3,NA,1.6744990348815918,1
10,2,122,filler_square,NA,NA,NA,1,1.2,77.66110097989402,128.08563201346746,168.51097240049495,168.51097240049495,68.27955424683708,133.4363543193361,2,NA,1.1831121444702148,1
10,2,123,critical,hwd,45,upper,4,4.1,200,125,125,200,117,117,1,h,1.673161268234253,1
10,2,124,filler_square,NA,NA,NA,4,4.1,134.46808154334562,134.46808154334562,68.81883138097552,89.51668689192255,88.88575497622088,129.67736153614612,1,NA,1.1840808391571045,1
10,2,125,critical,dwh,45,upper,1,1.3,117,117,125,200,200,125,3,h,1.0159697532653809,1
10,2,126,filler_square,NA,NA,NA,1,1.1,92.58404719803411,92.58404719803411,62.32751936551388,92.13352646221497,70.32570042620783,75.02779005672488,1,NA,1.5972943305969238,1
10,2,127,filler_random,NA,NA,NA,4,4.2,71.1383126400414,134.35542300557609,147.65609645373522,101.02822299363115,79.28875755625593,112.67503132584832,2,NA,1.1072642803192139,1
10,2,128,critical,hwd,60,lower,3,3.1,133,57,57,133,55,55,1,h,2.006091356277466,1
10,2,129,filler_square,NA,NA,NA,2.1,2.11,127.72537981813655,155.16859324451656,170.53780538377336,100.35719027592224,176.82758498065851,176.82758498065851,3,NA,1.0065150260925293,1
10,2,130,critical,dwh,45,upper,2.1,2.11,117,117,125,200,200,125,3,h,2.4119045734405518,1
10,2,131,filler_random,NA,NA,NA,4,4.2,58.60117940371197,97.22799080417651,87.5243641522899,99.0534013587244,116.5557207986173,145.82612246316222,3,NA,1.4438154697418213,1
10,2,132,critical,whd,45,lower,4,4.2,57,133,133,57,65,65,3,d,1.4883692264556885,0
10,2,133,filler_square,NA,NA,NA,2.1,2.12,66.67231148110268,80.6718672232549,58.57326766451622,65.55627933034786,82.63065603444952,82.63065603444952,3,NA,2.4694483280181885,1
10,2,134,critical,hdw,60,upper,3,3.2,200,125,100,100,125,200,3,w,1.362656593322754,1
10,2,135,critical,hdw,45,upper,3,3.1,200,125,117,117,125,200,3,w,1.6848831176757812,1
10,2,136,filler_square,NA,NA,NA,4,4.2,119.59417058101258,127.52130365441461,153.45664129068422,153.45664129068422,102.14344124842785,145.19249548347915,2,NA,1.215867042541504,1
10,2,137,catch,NA,NA,NA,4,4.2,70,120,176,149,103,87,2,NA,0.9973506927490234,1
10,2,138,critical,dwh,45,upper,3,3.1,117,117,125,200,200,125,3,h,2.4263012409210205,1
10,2,139,filler_square,NA,NA,NA,2.2,2.21,70.83385424630319,61.23058989928039,159.41727283678912,159.41727283678912,159.0751773077319,69.05033168518254,2,NA,0.8286406993865967,1
10,2,140,critical,hdw,60,lower,2.1,2.12,133,57,55,55,57,133,1,h,1.0728068351745605,1
10,2,141,critical,dwh,45,lower,2.1,2.12,65,65,57,133,133,57,3,h,1.2829265594482422,1
10,2,142,filler_random,NA,NA,NA,2.1,2.12,89.07966632601642,162.31101592678914,182.74559439412877,121.06536628921143,142.8641552995169,170.59847647918423,2,NA,0.8252105712890625,0
10,2,143,critical,wdh,60,lower,3,3.2,57,133,55,55,133,57,3,h,0.8821444511413574,1
10,2,144,catch,NA,NA,NA,3,3.2,124,66,89,101,172,153,3,NA,0.9081113338470459,1
10,2,145,filler_random,NA,NA,NA,3,3.2,116.73557671389719,91.9043287973432,157.7470002299492,169.53378233964597,57.85566330099679,99.5275236517343,2,NA,0.789362907409668,1
10,2,146,filler_random,NA,NA,NA,1,1.2,149.94280319525745,140.41245601615674,189.43922127997334,148.56773105506483,173.5864386041801,88.86318278761922,2,NA,0.8614115715026855,1
10,2,147,critical,hwd,45,lower,2.1,2.12,133,57,57,133,65,65,1,h,1.0585339069366455,1
10,2,148,critical,dwh,60,lower,4,4.1,55,55,57,133,133,57,3,h,1.0584509372711182,1
10,2,149,critical,dhw,45,lower,1,1.2,65,65,133,57,57,133,2,h,0.899406909942627,1
10,2,150,critical,whd,45,upper,2.1,2.11,125,200,200,125,117,117,2,h,1.248443603515625,1
10,2,151,critical,dhw,60,lower,1,1.3,55,55,133,57,57,133,2,h,1.7925066947937012,1
10,2,152,filler_random,NA,NA,NA,1,1.2,75.99338568724016,117.50280248797046,156.53053733979033,157.3322982634453,143.46183986255437,88.46918961995213,2,NA,0.8585801124572754,1
10,2,153,critical,whd,60,upper,2.1,2.12,125,200,200,125,100,100,2,h,1.4171524047851562,1
10,2,154,critical,dhw,45,lower,2.1,2.12,65,65,133,57,57,133,2,h,1.5317833423614502,1
10,2,155,critical,dhw,45,upper,2.1,2.11,117,117,200,125,125,200,3,w,2.181624412536621,1
10,2,156,critical,hwd,60,lower,4,4.1,133,57,57,133,55,55,1,h,1.539987564086914,1
10,2,157,critical,hdw,60,lower,2.1,2.11,133,57,55,55,57,133,1,h,0.9622659683227539,1
10,2,158,critical,hdw,45,lower,4,4.2,133,57,65,65,57,133,1,h,0.8138048648834229,1
10,2,159,critical,hdw,45,upper,2.1,2.12,200,125,117,117,125,200,3,w,1.395231008529663,1
10,2,160,filler_square,NA,NA,NA,2.1,2.11,119.3084904146373,119.3084904146373,74.50112379439665,58.96311330119282,78.09624339331509,82.70555047906092,1,NA,1.069441795349121,1
10,2,161,critical,whd,45,upper,4,4.2,125,200,200,125,117,117,2,h,1.3425178527832031,1
10,2,162,filler_random,NA,NA,NA,4,4.1,74.70450646010619,117.85999346537065,158.1530775650494,75.40702190977984,149.3786813208503,157.4777256082162,3,NA,0.879291296005249,1
10,2,163,critical,hdw,45,lower,3,3.1,133,57,65,65,57,133,1,h,1.0906403064727783,1
10,2,164,critical,hdw,60,lower,1,1.2,133,57,55,55,57,133,1,h,1.3815546035766602,1
10,2,165,critical,dhw,45,lower,3,3.2,65,65,133,57,57,133,2,h,1.2679991722106934,1
10,2,166,filler_square,NA,NA,NA,4,4.2,58.187671302639956,58.187671302639956,57.11002900017052,57.047101856925266,58.091583312127014,57.63251272741648,1,NA,2.07127046585083,1
10,2,167,filler_random,NA,NA,NA,3,3.1,86.85963065754447,189.3792583666655,70.50895594113527,114.87979535165175,76.38911388215958,162.19909575978545,1,NA,1.1543707847595215,1
10,2,168,filler_random,NA,NA,NA,2.2,2.22,180.49665884862338,172.49385758316015,113.70675512089034,115.71552516526164,105.46220464420918,196.53794125711175,1,NA,0.9642307758331299,1
10,2,169,critical,wdh,45,lower,2.1,2.11,57,133,65,65,133,57,3,h,2.494783401489258,1
10,2,170,filler_square,NA,NA,NA,2.2,2.21,59.049107523077446,76.6053864354979,62.19034118854618,79.12957890433495,115.0377077225425,115.0377077225425,3,NA,1.2859344482421875,1
10,2,171,critical,hwd,60,upper,2.1,2.11,200,125,125,200,100,100,1,h,1.1734578609466553,1
10,2,172,filler_square,NA,NA,NA,3,3.2,87.7638100895679,71.26888272543475,104.46708546752748,111.68387973078427,119.655905763721,119.655905763721,3,NA,1.8365814685821533,1
10,2,173,critical,hdw,60,upper,2.1,2.11,200,125,100,100,125,200,3,w,1.2807319164276123,1
10,2,174,critical,hwd,45,lower,1,1.1,133,57,57,133,65,65,1,h,1.7852692604064941,1
10,2,175,critical,wdh,45,lower,3,3.2,57,133,65,65,133,57,3,h,1.8512964248657227,1
10,2,176,critical,whd,60,upper,1,1.1,125,200,200,125,100,100,2,h,1.098184585571289,1
10,2,177,filler_square,NA,NA,NA,2.2,2.22,74.71042493322824,131.70781911809513,74.35980102102693,92.7836803742425,152.6351409464792,152.6351409464792,3,NA,1.0383076667785645,1
10,2,178,filler_square,NA,NA,NA,1,1.2,72.59100750121414,86.90058473072048,124.73268800132723,82.71226614314504,166.0134263281857,166.0134263281857,3,NA,0.8752326965332031,1
10,2,179,filler_random,NA,NA,NA,2.1,2.11,183.48866598131394,112.78324539478808,136.32047581364984,89.51161524407345,199.04830088902074,139.96097564222788,3,NA,1.4248456954956055,1
10,2,180,critical,dwh,60,lower,1,1.2,55,55,57,133,133,57,3,h,1.8955976963043213,1
10,2,181,filler_square,NA,NA,NA,4,4.1,128.16783428082135,128.16783428082135,103.61096891698995,121.61097103530167,101.51096310697307,92.89238869568581,1,NA,1.830284833908081,1
10,2,182,filler_square,NA,NA,NA,1,1.3,75.4597359413307,75.4597359413307,65.10197650492448,57.22247668800467,69.67395743954584,74.7536561262516,1,NA,1.318789005279541,1
10,2,183,critical,dwh,60,lower,3,3.1,55,55,57,133,133,57,2,w,1.360274076461792,1
10,2,184,critical,dhw,45,upper,3,3.2,117,117,200,125,125,200,2,h,1.539107322692871,1
10,2,185,filler_square,NA,NA,NA,3,3.1,139.43154148160545,139.43154148160545,62.63251217739155,93.42034102506699,116.61658420751253,93.03957235592364,1,NA,1.1518683433532715,1
10,2,186,critical,dhw,60,upper,2.1,2.12,100,100,200,125,125,200,2,h,1.4800920486450195,1
10,2,187,filler_square,NA,NA,NA,1,1.3,184.2100749875417,184.2100749875417,144.94147685962966,124.26842564912879,93.76345026116685,104.89694776945922,1,NA,0.9481589794158936,1
10,2,188,critical,whd,45,upper,2.1,2.12,125,200,200,125,117,117,2,h,1.2609775066375732,1
10,2,189,critical,dwh,45,upper,2.1,2.12,117,117,125,200,200,125,3,h,1.2867937088012695,1
10,2,190,critical,hwd,45,lower,2.1,2.12,133,57,57,133,65,65,1,h,1.3361165523529053,1
10,2,191,filler_random,NA,NA,NA,4,4.1,152.4670423803812,193.849871288759,146.41079328600117,144.07245618850828,186.78842893559212,154.70406130245618,3,NA,0.954474687576294,0
10,2,192,filler_random,NA,NA,NA,1,1.3,184.16514247290849,72.01036493917641,120.3151706693584,74.64562707767794,101.63801137977339,82.62343918863243,1,NA,1.2605090141296387,1
10,2,193,filler_square,NA,NA,NA,4,4.1,78.34492595035422,71.00231230790958,96.59899523905582,96.59899523905582,80.99113936004207,87.8691465420675,2,NA,1.6218624114990234,1
10,2,194,critical,dwh,45,lower,3,3.2,65,65,57,133,133,57,3,h,1.6961543560028076,1
10,2,195,filler_random,NA,NA,NA,3,3.2,161.2250363587386,198.0312687404907,199.03818608051873,139.40647891757845,182.34992542796175,155.85974787273227,2,NA,1.6264498233795166,0
10,2,196,critical,whd,60,upper,2.1,2.11,125,200,200,125,100,100,2,h,1.2964167594909668,1
10,2,197,filler_square,NA,NA,NA,3,3.2,113.59086436845742,113.59086436845742,108.48957603017348,97.17860300044077,104.82294605931475,58.520078820701855,1,NA,2.2021450996398926,1
10,2,198,filler_square,NA,NA,NA,2.2,2.21,64.11580531874654,79.60322174937568,77.42512736117064,66.49763549634133,92.70420120586618,92.70420120586618,3,NA,1.1121628284454346,1
10,2,199,filler_square,NA,NA,NA,2.2,2.22,90.5880458180548,90.5880458180548,79.75450690790427,72.03234335481262,74.96642849421377,84.37809376744995,1,NA,1.3193378448486328,1
10,2,200,filler_random,NA,NA,NA,1,1.2,196.19300965177612,125.36497167848913,84.7035723759893,89.3684173044795,62.114962324648296,153.1718242573827,1,NA,0.7655191421508789,1
10,2,201,filler_square,NA,NA,NA,1,1.3,160.56467634811816,160.56467634811816,75.86356476276907,154.07654686943397,146.23092645103168,64.26100544686571,1,NA,1.1433534622192383,1
10,2,202,filler_random,NA,NA,NA,4,4.1,65.26804167531833,85.01705262880579,174.3639462811466,186.93883367951858,95.24122296221472,190.30478259340273,2,NA,0.9240825176239014,1
10,2,203,critical,dhw,45,upper,1,1.1,117,117,200,125,125,200,2,h,1.4925203323364258,1
10,2,204,critical,hwd,60,lower,2.1,2.12,133,57,57,133,55,55,2,w,0.855776309967041,1
10,2,205,critical,wdh,45,upper,2.1,2.11,125,200,117,117,200,125,3,h,1.0694704055786133,1
10,2,206,critical,whd,60,lower,4,4.2,57,133,133,57,55,55,3,d,1.4976754188537598,0
10,2,207,critical,wdh,60,upper,3,3.2,125,200,100,100,200,125,3,h,2.564650297164917,1
10,2,208,critical,hdw,60,upper,1,1.2,200,125,100,100,125,200,1,h,2.0666263103485107,1
10,2,209,critical,hwd,45,upper,3,3.2,200,125,125,200,117,117,2,w,0.8726868629455566,1
10,2,210,filler_random,NA,NA,NA,2.1,2.12,101.30740800175445,57.67220780067933,139.25072924676164,88.17232436093724,91.48241468077727,148.0871032524106,2,NA,1.2902686595916748,0
10,3,1,filler_square,NA,NA,NA,3,3.1,90.21209081280804,67.76781622455195,99.1429351466815,99.1429351466815,74.9897185973317,66.48631833012804,2,NA,2.0325286388397217,1
10,3,2,critical,hdw,45,lower,4,4.2,133,57,65,65,57,133,1,h,1.0677366256713867,1
10,3,3,catch,NA,NA,NA,1,1.2,162,163,87,103,131,59,1,NA,0.7928671836853027,1
10,3,4,filler_random,NA,NA,NA,2.2,2.22,70.0155165241928,199.50932604408274,109.36062782021929,96.34027311327162,146.5926893130317,171.200049819887,3,NA,0.9015302658081055,1
10,3,5,filler_random,NA,NA,NA,2.2,2.21,151.18017912365656,82.49756660702258,84.39154550542071,62.838598381709105,83.43701677642676,76.05161868529505,1,NA,0.8516817092895508,1
10,3,6,critical,dhw,45,lower,4,4.2,65,65,133,57,57,133,2,h,1.5565035343170166,1
10,3,7,critical,whd,45,lower,1,1.1,57,133,133,57,65,65,2,h,0.9320390224456787,1
10,3,8,filler_square,NA,NA,NA,4,4.1,136.01630549840687,60.65968179794501,171.7500728729953,171.7500728729953,103.78764458614295,69.80304962842958,2,NA,0.8833224773406982,1
10,3,9,filler_square,NA,NA,NA,4,4.2,188.37564957496363,188.37564957496363,78.50623395903594,79.09139527613908,84.38038151596778,126.71730296111495,1,NA,1.2737476825714111,1
10,3,10,critical,wdh,45,upper,2.1,2.11,125,200,117,117,200,125,3,h,1.2778687477111816,1
10,3,11,filler_random,NA,NA,NA,2.2,2.22,167.69795070266315,69.14441096733165,119.23517931565553,109.78877788990832,124.32559625090809,166.5555813570935,3,NA,1.3275341987609863,1
10,3,12,catch,NA,NA,NA,4,4.1,153,172,130,60,58,132,2,NA,0.9508056640625,0
10,3,13,critical,hwd,60,lower,4,4.1,133,57,57,133,55,55,1,h,2.7607572078704834,1
10,3,14,filler_random,NA,NA,NA,2.2,2.21,192.16718971774682,96.88677967951867,163.53871791072896,64.00251466805538,69.64262578847821,124.34983737603768,1,NA,0.9134213924407959,1
10,3,15,critical,dhw,45,upper,2.1,2.11,117,117,200,125,125,200,2,h,1.2845170497894287,1
10,3,16,filler_square,NA,NA,NA,4,4.1,88.78303156087148,103.79332576667767,111.78876704895822,77.76713652433038,129.80778151779194,129.80778151779194,3,NA,0.9714291095733643,1
10,3,17,critical,hwd,45,upper,2.1,2.11,200,125,125,200,117,117,1,h,0.994276762008667,1
10,3,18,filler_random,NA,NA,NA,3,3.1,99.58633544005583,171.20762643156405,67.89616307245227,108.80220874391969,196.9322859969274,78.48091931155471,3,NA,1.0132577419281006,0
10,3,19,critical,dwh,45,upper,3,3.1,117,117,125,200,200,125,2,w,1.6849026679992676,1
10,3,20,critical,dhw,45,lower,3,3.2,65,65,133,57,57,133,2,h,1.2628567218780518,1
10,3,21,filler_random,NA,NA,NA,2.1,2.12,144.2527699781977,123.19261021410209,102.86446343023246,91.16735282326835,99.91881965243236,62.2483063631346,1,NA,0.8337929248809814,1
10,3,22,filler_random,NA,NA,NA,4,4.2,176.00681215851984,118.52487169086447,83.22233154924754,78.0460818950006,138.7957076022837,183.63026132952163,1,NA,2.755131721496582,0
10,3,23,critical,hwd,60,lower,1,1.3,133,57,57,133,55,55,1,h,2.206627607345581,1
10,3,24,catch,NA,NA,NA,1,1.3,145,180,122,68,125,65,1,NA,1.4723913669586182,1
10,3,25,catch,NA,NA,NA,4,4.1,67,123,96,94,139,186,3,NA,1.076333999633789,1
10,3,26,critical,hdw,45,lower,3,3.2,133,57,65,65,57,133,1,h,1.4704082012176514,1
10,3,27,critical,wdh,60,upper,4,4.2,125,200,100,100,200,125,3,h,1.0158817768096924,1
10,3,28,filler_square,NA,NA,NA,1,1.2,105.73256967211444,115.71677811694107,174.37859374366292,174.37859374366292,99.04414573835054,91.20300927532472,2,NA,1.527635097503662,1
10,3,29,critical,hdw,60,upper,2.1,2.12,200,125,100,100,125,200,3,w,1.2560033798217773,1
10,3,30,critical,dhw,60,lower,1,1.3,55,55,133,57,57,133,2,h,2.12874698638916,1
10,3,31,filler_square,NA,NA,NA,4,4.1,95.17151123309054,95.17151123309054,74.37916252259816,91.23717167535037,75.3122234030935,80.38505279376292,1,NA,1.8946454524993896,1
10,3,32,filler_random,NA,NA,NA,3,3.2,84.91993493652336,139.2543990939119,124.20363791915074,139.9735143464529,180.20953738199324,151.91123550851353,3,NA,1.5364055633544922,1
10,3,33,filler_random,NA,NA,NA,3,3.1,139.68661385295513,129.75926101148696,133.85125073972858,137.74029688530038,125.37935195922435,80.79084770129958,3,NA,1.506072998046875,0
10,3,34,filler_random,NA,NA,NA,2.2,2.21,118.63503157457352,113.517705075023,92.55635180392935,90.36879391164875,142.34498022623495,168.98143723056143,3,NA,3.0970778465270996,1
10,3,35,critical,whd,45,upper,4,4.2,125,200,200,125,117,117,2,h,1.8021361827850342,1
10,3,36,filler_random,NA,NA,NA,3,3.1,74.09769996573038,126.3632247915589,60.32324552193456,130.6689951499889,194.53718287324148,182.916496548478,3,NA,1.17350435256958,1
10,3,37,filler_random,NA,NA,NA,4,4.1,83.37125226875243,118.31592267428931,117.52885623156149,122.12197694530819,75.59497712261299,132.25539613970506,2,NA,1.5995349884033203,1
10,3,38,critical,dwh,45,upper,2.1,2.12,117,117,125,200,200,125,2,w,1.7708168029785156,1
10,3,39,filler_random,NA,NA,NA,1,1.2,178.88944639126126,125.60596544500417,112.31302697477524,188.53145105382598,182.76233977187644,171.2120649029714,3,NA,2.024955987930298,1
10,3,40,critical,hwd,60,lower,2.1,2.11,133,57,57,133,55,55,1,h,2.989240884780884,1
10,3,41,critical,dwh,60,lower,3,3.1,55,55,57,133,133,57,3,h,1.0893783569335938,1
10,3,42,critical,wdh,60,lower,4,4.2,57,133,55,55,133,57,3,h,0.9624373912811279,1
10,3,43,filler_square,NA,NA,NA,1,1.3,80.96354440896981,65.22718897494256,60.983781479402275,74.53509409871063,84.53133004517953,84.53133004517953,3,NA,1.1461079120635986,1
10,3,44,critical,dwh,45,upper,2.1,2.12,117,117,125,200,200,125,2,w,1.4072794914245605,1
10,3,45,critical,hdw,60,lower,4,4.1,133,57,55,55,57,133,1,h,1.231743574142456,1
10,3,46,critical,dhw,60,lower,4,4.1,55,55,133,57,57,133,2,h,1.1252655982971191,1
10,3,47,filler_random,NA,NA,NA,2.2,2.22,197.42062014104175,82.78403644234541,125.69240499239461,139.74418195008872,134.6380666273643,82.78909959584269,2,NA,1.2078461647033691,1
10,3,48,filler_square,NA,NA,NA,1,1.1,168.0190144625291,92.37718849952009,166.5686237549942,105.98208167373053,172.00303526786547,172.00303526786547,3,NA,1.0180983543395996,1
10,3,49,critical,hwd,45,upper,2.1,2.11,200,125,125,200,117,117,1,h,0.8819913864135742,1
10,3,50,critical,hdw,60,lower,2.1,2.11,133,57,55,55,57,133,1,h,1.3820946216583252,1
10,3,51,critical,wdh,60,lower,1,1.1,57,133,55,55,133,57,3,h,1.2038257122039795,1
10,3,52,filler_square,NA,NA,NA,1,1.1,155.64441519297225,155.64441519297225,145.12923629882573,139.35378792119656,57.76299429247549,135.44142622314368,1,NA,1.1092066764831543,1
10,3,53,critical,whd,60,upper,4,4.2,125,200,200,125,100,100,1,w,1.3504583835601807,1
10,3,54,filler_square,NA,NA,NA,2.1,2.11,88.54049362984924,73.89401476910518,164.04104507114351,164.04104507114351,89.67155666069023,155.12395505706334,2,NA,0.9420146942138672,1
10,3,55,filler_random,NA,NA,NA,2.2,2.21,111.59419827562672,153.8019402687521,135.45844690733102,198.39250869222832,82.15374249464705,139.43030238097927,2,NA,1.1559104919433594,1
10,3,56,filler_random,NA,NA,NA,2.2,2.21,183.65722937465083,181.84372819023224,184.94158127233123,117.49494735225763,67.96100605703724,181.41427311633655,1,NA,0.9193172454833984,1
10,3,57,catch,NA,NA,NA,2.2,2.22,130,60,180,145,83,107,2,NA,1.1524722576141357,1
10,3,58,filler_square,NA,NA,NA,1,1.1,97.40090563350694,118.52475645603923,170.7279827347429,170.7279827347429,120.7659131221449,140.3297904304781,2,NA,0.9824886322021484,1
10,3,59,critical,hdw,45,lower,2.1,2.12,133,57,65,65,57,133,1,h,0.9783174991607666,1
10,3,60,filler_square,NA,NA,NA,2.2,2.21,169.9662658578854,169.9662658578854,145.57272122896288,91.21076451754546,134.71890823376953,89.84066069307045,1,NA,0.9671344757080078,1
10,3,61,filler_random,NA,NA,NA,2.1,2.11,168.1112162591861,60.07888985841467,101.165659675278,126.38423860655465,147.0543244726778,168.93660542222096,3,NA,0.9599659442901611,1
10,3,62,critical,hwd,60,upper,3,3.2,200,125,125,200,100,100,2,w,0.962960958480835,1
10,3,63,critical,dwh,45,lower,4,4.1,65,65,57,133,133,57,3,h,1.0075011253356934,1
10,3,64,critical,dhw,60,lower,3,3.2,55,55,133,57,57,133,2,h,0.8960883617401123,1
10,3,65,critical,whd,60,lower,2.1,2.12,57,133,133,57,55,55,2,h,0.9182243347167969,1
10,3,66,filler_random,NA,NA,NA,4,4.2,87.18593027936085,115.24287286461094,152.11289736058282,197.47337592154204,116.55443099989827,103.09468434866261,2,NA,0.9375507831573486,1
10,3,67,filler_square,NA,NA,NA,4,4.1,110.42802023863152,57.80367050838292,120.24123626375963,120.24123626375963,93.57751367850904,104.64157120674211,2,NA,1.070739984512329,1
10,3,68,critical,whd,60,lower,3,3.1,57,133,133,57,55,55,2,h,1.1741023063659668,1
10,3,69,critical,dwh,60,upper,1,1.1,100,100,125,200,200,125,3,h,0.9488503932952881,1
10,3,70,filler_square,NA,NA,NA,2.2,2.22,129.4390776302486,129.4390776302486,124.07759722475345,73.8531323648355,118.49806814324666,113.3667388757552,3,NA,2.9567739963531494,0
10,3,71,filler_square,NA,NA,NA,1,1.2,63.33454273699549,153.16206315542556,68.61465963607,128.1403089364523,154.16771983273438,154.16771983273438,3,NA,0.9921677112579346,1
10,3,72,filler_random,NA,NA,NA,1,1.3,175.525116714143,198.0930328722702,109.98244503974045,190.69807843456184,166.2359506670063,146.1903435161165,1,NA,1.0376617908477783,1
10,3,73,filler_square,NA,NA,NA,3,3.1,74.53085804908252,63.37764132524533,91.89811192560559,91.89811192560559,84.02585360899164,78.91484038024163,2,NA,2.385594367980957,1
10,3,74,filler_random,NA,NA,NA,2.2,2.22,144.7588077784576,144.94716345641632,70.50938094530845,193.16122877691885,197.58745515266986,92.83036554639133,1,NA,1.3855128288269043,1
10,3,75,catch,NA,NA,NA,2.2,2.22,140,185,113,77,73,117,1,NA,0.7356081008911133,1
10,3,76,critical,dhw,60,upper,1,1.1,100,100,200,125,125,200,2,h,1.8975389003753662,1
10,3,77,filler_random,NA,NA,NA,3,3.2,131.0042362491813,108.32650608157215,155.0997564811066,157.25474602171596,187.13837041966445,63.35654328036892,2,NA,0.8349184989929199,1
10,3,78,critical,hdw,45,lower,1,1.1,133,57,65,65,57,133,1,h,1.9480314254760742,1
10,3,79,critical,dhw,60,upper,2.1,2.12,100,100,200,125,125,200,2,h,1.123899221420288,1
10,3,80,critical,whd,45,lower,4,4.2,57,133,133,57,65,65,2,h,1.2235932350158691,1
10,3,81,critical,hwd,60,lower,2.1,2.12,133,57,57,133,55,55,2,w,1.254162311553955,1
10,3,82,critical,dwh,60,lower,2.1,2.12,55,55,57,133,133,57,2,w,0.589493989944458,1
10,3,83,critical,whd,60,upper,1,1.3,125,200,200,125,100,100,2,h,1.1588187217712402,1
10,3,84,filler_square,NA,NA,NA,3,3.1,180.17065246009116,180.17065246009116,116.280401427064,71.12378978951392,131.05994384813317,153.01684075040723,1,NA,1.4357273578643799,1
10,3,85,filler_square,NA,NA,NA,2.1,2.11,109.29250170284871,62.41527917901757,77.27131794221332,109.25222084947676,109.56085087804948,109.56085087804948,3,NA,1.517054557800293,1
10,3,86,critical,hwd,45,upper,4,4.1,200,125,125,200,117,117,2,w,1.7940337657928467,1
10,3,87,filler_random,NA,NA,NA,4,4.2,161.19090312969368,113.21144042890509,144.2135741750028,170.9540656459052,191.32125475263854,98.49690610638677,2,NA,1.9779095649719238,1
10,3,88,critical,dwh,45,upper,4,4.1,117,117,125,200,200,125,3,h,2.5366294384002686,1
10,3,89,filler_random,NA,NA,NA,3,3.2,143.3915909775267,113.92892409688464,170.51089926265718,181.6847500971803,116.78157538249442,138.10755422726965,2,NA,0.7861673831939697,1
10,3,90,filler_square,NA,NA,NA,2.1,2.12,77.44828117658443,79.11222159071986,80.87710979456459,80.87710979456459,71.74192383537432,78.85280447862345,1,NA,2.0934531688690186,0
10,3,91,filler_random,NA,NA,NA,2.1,2.11,199.36233715995303,106.75880869460269,135.8466148475698,133.64122266419622,113.40026894779211,120.05345459316581,1,NA,1.940889835357666,1
10,3,92,filler_random,NA,NA,NA,4,4.1,162.26994708948604,113.21543397150401,119.07383154345848,72.23071979489407,121.51580564566463,68.1053798942669,1,NA,1.2359070777893066,1
10,3,93,critical,dwh,60,lower,4,4.1,55,55,57,133,133,57,3,h,1.8962547779083252,1
10,3,94,critical,whd,45,upper,3,3.1,125,200,200,125,117,117,2,h,0.8290989398956299,1
10,3,95,filler_square,NA,NA,NA,1,1.3,81.81649829564287,108.6457050401668,93.69000487693197,60.50046655361719,194.47767117132352,194.47767117132352,3,NA,0.9063136577606201,1
10,3,96,critical,dwh,45,lower,3,3.1,65,65,57,133,133,57,3,h,1.373718500137329,1
10,3,97,critical,whd,45,upper,1,1.2,125,200,200,125,117,117,2,h,1.235971450805664,1
10,3,98,critical,whd,60,upper,2.1,2.12,125,200,200,125,100,100,2,h,0.9941890239715576,1
10,3,99,critical,hwd,45,lower,2.1,2.11,133,57,57,133,65,65,1,h,1.3101952075958252,1
10,3,100,filler_square,NA,NA,NA,2.1,2.11,57.03302864317508,60.91534219588525,83.1866399632765,83.1866399632765,74.02296285286401,80.02816517458838,2,NA,2.3623099327087402,1
10,3,101,critical,wdh,60,upper,2.1,2.11,125,200,100,100,200,125,1,w,1.9788663387298584,1
10,3,102,critical,dhw,45,lower,2.1,2.11,65,65,133,57,57,133,2,h,1.3483257293701172,1
10,3,103,filler_square,NA,NA,NA,2.1,2.12,57.030147990207155,57.064978600503075,57.20387857597967,57.20387857597967,57.01203927807491,57.15923393882542,1,NA,2.9378902912139893,0
10,3,104,critical,dwh,60,upper,2.1,2.11,100,100,125,200,200,125,3,h,1.650897741317749,1
10,3,105,critical,hdw,45,upper,4,4.2,200,125,117,117,125,200,3,w,1.2953479290008545,1
10,3,106,filler_square,NA,NA,NA,2.2,2.21,149.6055770786814,149.6055770786814,119.3289024246389,120.5937556073815,140.92826376221439,139.23401288459198,1,NA,1.3046073913574219,1
10,3,107,filler_square,NA,NA,NA,2.2,2.21,155.05948527712286,155.05948527712286,79.25733884342318,144.46220670219867,121.5720956766778,96.30192162902583,1,NA,0.9894344806671143,1
10,3,108,critical,dwh,60,upper,4,4.2,100,100,125,200,200,125,3,h,1.0839717388153076,1
10,3,109,critical,whd,60,upper,2.1,2.11,125,200,200,125,100,100,2,h,0.9461016654968262,1
10,3,110,filler_random,NA,NA,NA,3,3.1,94.25951946129987,90.75205471197432,163.75406485474866,192.2568105858097,127.65125696047907,96.40165448490598,2,NA,0.8359596729278564,1
10,3,111,critical,dwh,60,upper,3,3.1,100,100,125,200,200,125,3,h,1.9173851013183594,1
10,3,112,filler_random,NA,NA,NA,1,1.1,192.77703696188522,77.62635009340887,163.93589251527408,198.24486324881286,181.34674281763722,181.4740204148123,2,NA,1.5995633602142334,0
10,3,113,critical,hwd,45,lower,1,1.2,133,57,57,133,65,65,1,h,1.7983088493347168,1
10,3,114,critical,dhw,45,lower,2.1,2.11,65,65,133,57,57,133,2,h,0.8847036361694336,1
10,3,115,critical,wdh,45,upper,1,1.3,125,200,117,117,200,125,3,h,1.8508961200714111,1
10,3,116,critical,whd,60,upper,3,3.1,125,200,200,125,100,100,2,h,0.783858060836792,1
10,3,117,critical,wdh,45,lower,2.1,2.12,57,133,65,65,133,57,3,h,1.4261448383331299,1
10,3,118,filler_square,NA,NA,NA,3,3.1,99.50229453770709,99.50229453770709,87.0239359708604,78.61044549728807,70.89484041343134,76.64836965380708,1,NA,1.0545756816864014,1
10,3,119,critical,hwd,45,upper,1,1.3,200,125,125,200,117,117,1,h,1.0059545040130615,1
10,3,120,critical,wdh,45,lower,4,4.1,57,133,65,65,133,57,3,h,1.066159725189209,1
10,3,121,critical,hwd,45,lower,4,4.2,133,57,57,133,65,65,1,h,1.060842752456665,1
10,3,122,critical,wdh,60,upper,3,3.2,125,200,100,100,200,125,1,w,0.9671876430511475,1
10,3,123,critical,dwh,60,lower,2.1,2.11,55,55,57,133,133,57,3,h,1.6221437454223633,1
10,3,124,critical,dwh,60,upper,2.1,2.11,100,100,125,200,200,125,2,w,1.1851475238800049,1
10,3,125,critical,wdh,45,lower,2.1,2.12,57,133,65,65,133,57,3,h,1.900038480758667,1
10,3,126,critical,wdh,45,upper,3,3.2,125,200,117,117,200,125,3,h,1.5499672889709473,1
10,3,127,critical,dhw,60,upper,3,3.2,100,100,200,125,125,200,2,h,1.3232717514038086,1
10,3,128,critical,hwd,60,upper,2.1,2.12,200,125,125,200,100,100,2,w,0.962573766708374,1
10,3,129,critical,hdw,60,lower,2.1,2.11,133,57,55,55,57,133,1,h,1.7866230010986328,1
10,3,130,critical,dwh,45,upper,1,1.3,117,117,125,200,200,125,3,h,1.6164743900299072,1
10,3,131,filler_square,NA,NA,NA,4,4.2,68.6391888731068,86.6052239396672,135.78083166970276,135.78083166970276,120.35071498029302,98.08908484915197,2,NA,1.2430264949798584,1
10,3,132,catch,NA,NA,NA,3,3.2,101,89,184,141,76,114,2,NA,0.7811923027038574,1
10,3,133,critical,dhw,45,upper,3,3.1,117,117,200,125,125,200,2,h,2.1317131519317627,1
10,3,134,filler_square,NA,NA,NA,2.1,2.11,161.28062740473217,158.58379889057517,161.37702764879575,168.64473830711626,181.5544566211148,181.5544566211148,3,NA,1.9821202754974365,1
10,3,135,critical,hwd,60,upper,4,4.2,200,125,125,200,100,100,2,w,2.458329677581787,1
10,3,136,filler_random,NA,NA,NA,4,4.2,98.85014891213467,120.92282791642049,199.02105744478678,100.80422475412271,108.62709146443916,153.08770105289165,2,NA,1.6582942008972168,1
10,3,137,critical,hdw,60,lower,3,3.1,133,57,55,55,57,133,3,w,1.7237234115600586,1
10,3,138,filler_square,NA,NA,NA,2.2,2.22,62.14711685237705,159.3958334706723,139.01161803242832,87.58229812095924,199.488540297395,199.488540297395,3,NA,1.0891754627227783,1
10,3,139,critical,dwh,45,lower,1,1.3,65,65,57,133,133,57,3,h,1.259796142578125,1
10,3,140,filler_square,NA,NA,NA,1,1.2,167.4142519661113,167.4142519661113,62.660606380485,104.56846646096527,65.112799232448907,138.2184883368103,1,NA,1.1503040790557861,1
10,3,141,critical,whd,60,lower,1,1.1,57,133,133,57,55,55,2,h,1.2622578144073486,1
10,3,142,critical,wdh,45,upper,4,4.1,125,200,117,117,200,125,3,h,1.0172312259674072,1
10,3,143,catch,NA,NA,NA,4,4.1,122,68,85,105,135,190,3,NA,0.9753899574279785,1
10,3,144,critical,dhw,45,upper,1,1.3,117,117,200,125,125,200,2,h,2.0893967151641846,1
10,3,145,filler_random,NA,NA,NA,1,1.2,135.68188913457732,140.4994745191742,193.06678259110785,98.10540411719754,163.22836785846457,107.35996600309204,2,NA,2.5813894271850586,0
10,3,146,filler_square,NA,NA,NA,2.1,2.11,60.37664291188684,81.70200815993549,105.6490883922581,105.6490883922581,100.2758565877533,59.441874936516285,2,NA,1.6739716529846191,1
10,3,147,critical,dhw,45,upper,2.1,2.12,117,117,200,125,125,200,2,h,1.8147478103637695,1
10,3,148,catch,NA,NA,NA,4,4.1,172,153,116,74,77,113,1,NA,0.98859405517578125,1
10,3,149,critical,hdw,45,upper,2.1,2.11,200,125,117,117,125,200,1,h,1.56508207321167,1
10,3,150,critical,hdw,60,upper,3,3.2,200,125,100,100,125,200,1,h,1.867633581161499,1
10,3,151,critical,hdw,45,upper,2.1,2.12,200,125,117,117,125,200,1,h,1.6955933570861816,1
10,3,152,filler_random,NA,NA,NA,2.2,2.21,88.02812755066994,194.84965825463328,160.82859378643332,180.76862966110906,61.266519951460495,126.04140155720798,2,NA,0.8833508491516113,1
10,3,153,critical,dwh,60,lower,1,1.2,55,55,57,133,133,57,3,h,1.4934055805206299,1
10,3,154,filler_square,NA,NA,NA,4,4.2,59.24771086717664,60.765745866103224,68.41827217293013,68.41827217293013,61.4532018958033,59.63336881187397,2,NA,1.3923742771148682,1
10,3,155,filler_square,NA,NA,NA,3,3.1,76.05622832456396,76.6982835559719,67.10209851792894,61.55762706235574,77.56384056127422,77.56384056127422,3,NA,1.8639352321624756,1
10,3,156,critical,dhw,45,lower,1,1.1,65,65,133,57,57,133,2,h,1.1133167743682861,1
10,3,157,critical,hwd,45,upper,3,3.2,200,125,125,200,117,117,1,h,2.737553119659424,1
10,3,158,filler_square,NA,NA,NA,1,1.3,122.09208655255054,122.09208655255054,101.46327017267978,69.63761638362104,65.21057715021081,119.63594936201963,1,NA,0.9569425582885742,1
10,3,159,critical,wdh,60,upper,1,1.3,125,200,100,100,200,125,3,h,1.3392198085784912,1
10,3,160,catch,NA,NA,NA,4,4.1,155,170,106,84,72,118,1,NA,1.2975668907165527,1
10,3,161,critical,whd,45,lower,2.1,2.11,57,133,133,57,65,65,2,h,1.2808432579040527,1
10,3,162,filler_square,NA,NA,NA,2.2,2.22,73.06741872179073,95.53208549057526,82.27327988551286,65.96872315215586,99.67242179791012,99.67242179791012,3,NA,2.018230676651001,1
10,3,163,critical,whd,60,lower,2.1,2.11,57,133,133,57,55,55,2,h,1.1456027030944824,1
10,3,164,filler_random,NA,NA,NA,2.1,2.12,78.83466611854293,165.99987743044505,98.76071304417019,171.07518307981132,188.877992253846,124.35224908086383,3,NA,1.0810306072235107,1
10,3,165,filler_random,NA,NA,NA,1,1.1,140.08182574144757,89.37629264360669,70.86850787097544,112.87327321717811,187.72218048149205,79.56192283956821,3,NA,0.9793298244476318,1
10,3,166,critical,hwd,45,lower,2.1,2.11,133,57,57,133,65,65,1,h,1.7006018161773682,1
10,3,167,critical,wdh,45,lower,1,1.3,57,133,65,65,133,57,3,h,1.393151044845581,1
10,3,168,filler_random,NA,NA,NA,3,3.2,154.1230456718685,129.64695408100474,61.29861227506392,130.32195284764583,138.46405724779976,128.0661307880414,1,NA,1.1808691024780273,1
10,3,169,critical,dwh,45,lower,2.1,2.12,65,65,57,133,133,57,3,h,1.5175089836120605,1
10,3,170,critical,dhw,60,lower,2.1,2.12,55,55,133,57,57,133,2,h,1.459547758102417,1
10,3,171,critical,hwd,60,upper,2.1,2.11,200,125,125,200,100,100,1,h,1.4829835891723633,1
10,3,172,critical,wdh,45,lower,3,3.2,57,133,65,65,133,57,3,h,0.916015625,1
10,3,173,critical,wdh,60,lower,2.1,2.12,57,133,55,55,133,57,3,h,2.4915997982025146,1
10,3,174,critical,whd,45,upper,2.1,2.12,125,200,200,125,117,117,2,h,1.352637529373169,1
10,3,175,filler_random,NA,NA,NA,4,4.1,66.07639801024035,143.15754008262627,93.97965217246104,120.57836481783247,140.26277879820034,95.93808821204291,3,NA,1.1706843376159668,1
10,3,176,filler_square,NA,NA,NA,1,1.1,125.75871509172798,125.75871509172798,87.71456984625513,95.67036203176752,120.47272246598334,71.51650033558677,1,NA,1.0794951915740967,1
10,3,177,critical,wdh,60,lower,2.1,2.11,57,133,55,55,133,57,3,h,1.9312806129455566,1
10,3,178,critical,hwd,45,lower,3,3.1,133,57,57,133,65,65,1,h,1.2675285339355469,1
10,3,179,filler_random,NA,NA,NA,2.1,2.12,120.25871796659928,180.95933125956867,100.92240129794033,68.27448110728727,93.99470523285783,70.33495644924756,1,NA,0.9296016693115234,1
10,3,180,filler_random,NA,NA,NA,2.1,2.11,84.89674593544531,138.8792219146465,80.28318786584465,177.37004730584096,161.88365460107963,74.92330843917972,3,NA,1.1322369575500488,0
10,3,181,critical,hwd,60,lower,3,3.2,133,57,57,133,55,55,1,h,0.9432644844055176,1
10,3,182,critical,dhw,45,upper,4,4.1,117,117,200,125,125,200,3,w,2.0873122215270996,1
10,3,183,critical,dwh,45,lower,2.1,2.11,65,65,57,133,133,57,3,h,1.7780828475952148,1
10,3,184,filler_random,NA,NA,NA,1,1.2,82.43693677305289,114.90431761377911,93.8452255629816,73.38506158819739,195.90967675017183,162.2403180358092,3,NA,0.8272974491119385,1
10,3,185,critical,hdw,45,upper,1,1.2,200,125,117,117,125,200,1,h,0.813513994216919,1
10,3,186,critical,hdw,60,lower,1,1.3,133,57,55,55,57,133,1,h,1.1117885112762451,1
10,3,187,filler_square,NA,NA,NA,4,4.1,92.80315180809887,122.0633452607075,165.6294378618332,115.20422069770702,189.22105120618284,189.22105120618284,3,NA,1.368298053741455,1
10,3,188,critical,dhw,60,lower,2.1,2.12,55,55,133,57,57,133,2,h,1.9261107444763184,1
10,3,189,filler_square,NA,NA,NA,1,1.2,168.93383386731233,168.93383386731233,156.97514099986097,157.1846794842853,81.43616533764593,82.27932158606333,2,NA,1.0497872829437256,0
10,3,190,critical,hdw,60,upper,1,1.2,200,125,100,100,125,200,1,h,1.234471082687378,1
10,3,191,critical,hdw,45,lower,2.1,2.12,133,57,65,65,57,133,1,h,1.2523143291473389,1
10,3,192,critical,whd,60,lower,4,4.2,57,133,133,57,55,55,2,h,0.8952295780181885,1
10,3,193,critical,dhw,60,upper,2.1,2.12,100,100,200,125,125,200,2,h,1.212106466293335,1
10,3,194,critical,wdh,45,upper,2.1,2.11,125,200,117,117,200,125,1,w,2.412998914718628,1
10,3,195,critical,dhw,60,upper,4,4.2,100,100,200,125,125,200,2,h,1.0053496360778809,1
10,3,196,critical,hdw,45,upper,3,3.2,200,125,117,117,125,200,1,h,1.6338376998901367,1
10,3,197,critical,whd,45,upper,2.1,2.12,125,200,200,125,117,117,2,h,0.952301025390625,1
10,3,198,filler_square,NA,NA,NA,3,3.2,63.73045949590855,63.73045949590855,59.070555337945336,59.30116915089596,63.387264098721985,59.41247824636024,1,NA,2.428746461868286,1
10,3,199,filler_square,NA,NA,NA,1,1.1,82.03590149050778,70.87181892410615,67.71771076012351,89.90880850278974,106.20602992782644,106.20602992782644,3,NA,1.2927219867706299,1
10,3,200,filler_square,NA,NA,NA,2.2,2.22,143.78920698468426,143.78920698468426,106.6849517811708,88.61185459767265,113.13718254923995,140.6454218083667,1,NA,1.3206210136413574,1
10,3,201,filler_random,NA,NA,NA,4,4.1,68.74343520919085,113.7776588565007,134.93488483868936,155.92846161972597,164.67669660060764,133.60328912383358,3,NA,1.2352032661437988,1
10,3,202,critical,hdw,60,upper,4,4.1,200,125,100,100,125,200,1,h,1.1099474430084229,1
10,3,203,filler_random,NA,NA,NA,4,4.1,125.40758947166258,137.74363259528945,134.47110719091495,151.37093463171732,183.28379193221258,107.67192528133239,3,NA,1.6728312969207764,0
10,3,204,critical,whd,45,lower,2.1,2.11,57,133,133,57,65,65,2,h,1.4381933212280273,1
10,3,205,filler_random,NA,NA,NA,2.2,2.21,63.30171256625635,81.30083162925825,86.38922504990555,184.7414681206438,196.70827842668314,182.1848203842315,3,NA,0.8601467609405518,1
10,3,206,critical,wdh,60,lower,3,3.2,57,133,55,55,133,57,3,h,2.116732358932495,1
10,3,207,critical,hdw,60,upper,2.1,2.12,200,125,100,100,125,200,3,w,1.50046706199646,1
10,3,208,critical,hwd,60,upper,1,1.2,200,125,125,200,100,100,3,d,1.6586968898773193,0
10,3,209,critical,whd,45,lower,3,3.2,57,133,133,57,65,65,2,h,1.5919415950775146,1
10,3,210,critical,wdh,60,upper,2.1,2.11,125,200,100,100,200,125,3,h,1.7650065422058105,1
1,1,1,filler_square,NA,NA,NA,2.1,2.11,176.5884724514021,176.5884724514021,152.17992288924736,157.00415591967658,67.88315311288103,99.82907865745753,1,NA,2.6000757217407227,1
1,1,2,filler_random,NA,NA,NA,3,3.1,70.20023685681615,82.21735429071543,113.12324103523781,102.52688545846638,161.51830396008478,78.07285333459774,3,NA,3.720057487487793,1
1,1,3,filler_square,NA,NA,NA,2.2,2.22,57.012774166505956,62.93965017386143,63.890431687449556,63.890431687449556,59.717468614351546,57.35687911620292,2,NA,3.6684024333953857,1
1,1,4,critical,hwd,60,lower,1,1.2,133,57,57,133,55,55,2,w,3.736055374145508,1
1,1,5,filler_square,NA,NA,NA,2.1,2.12,174.9033244935645,174.9033244935645,79.66691028144092,61.48886342153452,68.62847082030775,107.29994098988183,1,NA,2.4364163875579834,1
1,1,6,critical,hwd,45,upper,1,1.1,200,125,125,200,117,117,2,w,2.7967076301574707,1
1,1,7,critical,whd,60,lower,2.1,2.11,57,133,133,57,55,55,2,h,3.1455841064453125,1
1,1,8,catch,NA,NA,NA,4,4.1,75,115,127,63,173,152,3,NA,2.3391735553741455,1
1,1,9,critical,dwh,60,upper,1,1.1,100,100,125,200,200,125,2,w,3.6172595024108887,1
1,1,10,critical,wdh,60,lower,3,3.2,57,133,55,55,133,57,1,w,6.312344074249268,1
1,1,11,critical,whd,45,upper,2.1,2.12,125,200,200,125,117,117,1,w,1.88893461227417,1
1,1,12,filler_square,NA,NA,NA,1,1.2,57.462731602463236,57.373251776821746,57.344077068118786,57.346573801626,57.68474382130304,57.68474382130304,3,NA,1.7490289211273193,1
1,1,13,filler_random,NA,NA,NA,4,4.1,132.22390995986606,98.73768032815926,142.51217007344553,197.50590469920266,116.75759223476993,144.55976320070076,2,NA,1.1805634498596191,1
1,1,14,catch,NA,NA,NA,1,1.1,63,127,134,191,77,113,2,NA,0.9300079345703125,1
1,1,15,critical,hwd,60,lower,2.1,2.12,133,57,57,133,55,55,2,w,1.3098711967468262,1
1,1,16,critical,whd,45,upper,3,3.1,125,200,200,125,117,117,2,h,1.320990800857544,1
1,1,17,critical,wdh,45,lower,3,3.1,57,133,65,65,133,57,3,h,2.056490182876587,1
1,1,18,catch,NA,NA,NA,4,4.2,141,184,104,86,105,85,1,NA,1.0746712684631348,1
1,1,19,critical,whd,45,lower,2.1,2.11,57,133,133,57,65,65,2,h,1.144287347793579,1
1,1,20,critical,whd,60,lower,2.1,2.11,57,133,133,57,55,55,2,h,1.0421340465545654,1
1,1,21,critical,hdw,60,upper,2.1,2.11,200,125,100,100,125,200,3,w,1.6297049522399902,1
1,1,22,catch,NA,NA,NA,2.1,2.11,132,193,125,65,110,80,1,NA,0.92018723487854,1
1,1,23,catch,NA,NA,NA,3,3.1,124,66,141,184,83,107,2,NA,0.9558084011077881,1
1,1,24,critical,dhw,45,lower,4,4.1,65,65,133,57,57,133,3,w,1.4074602127075195,1
1,1,25,filler_square,NA,NA,NA,2.1,2.12,94.14880299232979,145.22678957024124,165.21876000732934,165.21876000732934,140.30650895011132,92.67606929418795,2,NA,1.1618108749389648,1
1,1,26,filler_random,NA,NA,NA,3,3.2,157.87698722531746,168.72515667577017,169.79352263271562,177.56449571204556,113.0190664241799,118.27220751755794,2,NA,1.672114372253418,1
1,1,27,critical,whd,45,lower,2.1,2.12,57,133,133,57,65,65,1,w,3.2913782596588135,1
1,1,28,critical,wdh,45,lower,4,4.2,57,133,65,65,133,57,3,h,1.9477884769439697,1
1,1,29,filler_square,NA,NA,NA,4,4.2,77.64911614396217,95.80885038869494,100.04315173592967,100.04315173592967,62.354819013155655,91.12531971006365,2,NA,1.3154470920562744,1
1,1,30,critical,dwh,45,lower,2.1,2.11,65,65,57,133,133,57,2,w,1.221855640411377,1
1,1,31,critical,hwd,60,upper,1,1.2,200,125,125,200,100,100,2,w,1.0730559825897217,1
1,1,32,catch,NA,NA,NA,2.1,2.11,152,173,114,76,90,100,1,NA,0.9958312511444092,1
1,1,33,critical,hdw,45,upper,2.1,2.12,200,125,117,117,125,200,3,w,1.125598669052124,1
1,1,34,critical,wdh,60,upper,1,1.3,125,200,100,100,200,125,1,w,1.3166768550872803,1
1,1,35,filler_square,NA,NA,NA,3,3.1,58.77943771007025,58.39518290339185,61.09434598232241,61.09434598232241,57.0854021777347,57.36256029971671,2,NA,1.065455436706543,1
1,1,36,critical,wdh,60,upper,3,3.1,125,200,100,100,200,125,1,w,1.7794883251190186,1
1,1,37,critical,whd,60,upper,2.1,2.11,125,200,200,125,100,100,2,h,0.979299783706665,1
1,1,38,critical,whd,45,lower,1,1.2,57,133,133,57,65,65,2,h,0.8606619834899902,1
1,1,39,critical,wdh,45,upper,1,1.2,125,200,117,117,200,125,3,h,1.0152413845062256,1
1,1,40,critical,dhw,60,upper,3,3.2,100,100,200,125,125,200,2,h,0.8833024501800537,1
1,1,41,critical,whd,45,upper,1,1.3,125,200,200,125,117,117,2,h,1.0641844272613525,1
1,1,42,filler_square,NA,NA,NA,4,4.1,117.4224778033627,74.347270030618,142.73576279048189,142.73576279048189,69.76789829733168,95.05608773621319,2,NA,0.8466100692749023,1
1,1,43,critical,hdw,60,lower,3,3.2,133,57,55,55,57,133,3,w,0.858773946762085,1
1,1,44,filler_random,NA,NA,NA,2.1,2.12,199.5862450403598,179.3220948602028,127.43847651601727,96.1073454951586,142.94248838606893,173.0641416466147,1,NA,1.1493234634399414,1
1,1,45,critical,wdh,45,upper,4,4.1,125,200,117,117,200,125,3,h,1.192063331604004,1
1,1,46,filler_square,NA,NA,NA,1,1.3,157.1253588895483,157.1253588895483,64.45222310682901,86.68436528101925,146.83863494331138,92.5186963666714,1,NA,0.9892303943634033,1
1,1,47,critical,wdh,45,upper,2.1,2.11,125,200,117,117,200,125,1,w,1.08561110496521,1
1,1,48,filler_random,NA,NA,NA,1,1.3,111.05867496847318,76.68492651467945,119.44550830442107,148.13704341132677,154.73879177506734,82.52882837946134,2,NA,0.8811275959014893,1
1,1,49,filler_random,NA,NA,NA,1,1.1,98.41479548302163,96.43424838066399,194.87172943088706,133.05415069810238,118.23242491319982,168.068312426175,3,NA,1.0421879291534424,0
1,1,50,critical,dwh,45,upper,4,4.1,117,117,125,200,200,125,2,w,1.2855644226074219,1
1,1,51,critical,whd,60,upper,1,1.1,125,200,200,125,100,100,2,h,0.8273639678955078,1
1,1,52,filler_random,NA,NA,NA,4,4.2,170.08406412368032,180.9406197351933,161.63195386191632,187.25072147209144,126.28661912440971,152.98894526703504,2,NA,1.315122127532959,0
1,1,53,critical,wdh,60,lower,2.1,2.11,57,133,55,55,133,57,3,h,1.3313415050506592,1
1,1,54,filler_random,NA,NA,NA,1,1.2,106.75553257252224,94.55402025789762,95.92660769926155,113.13902853103008,124.04175314964887,108.0758439183993,3,NA,1.0909068584442139,1
1,1,55,critical,dhw,60,upper,2.1,2.11,100,100,200,125,125,200,2,h,1.0544698238372803,1
1,1,56,critical,hwd,60,upper,3,3.2,200,125,125,200,100,100,2,w,1.0680110454559326,1
1,1,57,critical,whd,45,lower,4,4.1,57,133,133,57,65,65,2,h,1.006030797958374,1
1,1,58,filler_random,NA,NA,NA,1,1.2,60.260295741903306,73.66797794493773,70.31101420452029,190.04389613467447,60.08530529443509,90.4623583229702,2,NA,0.9114620685577393,1
1,1,59,critical,hdw,60,upper,4,4.1,200,125,100,100,125,200,3,w,1.4011781215667725,1
1,1,60,critical,dhw,60,upper,2.1,2.12,100,100,200,125,125,200,2,h,1.4218714237213135,1
1,1,61,critical,dhw,60,lower,2.1,2.11,55,55,133,57,57,133,2,h,1.1995062828063965,1
1,1,62,filler_random,NA,NA,NA,2.1,2.11,76.43600880034131,60.113782544407485,112.24348247968061,126.88027991948812,138.2427578122602,73.82807617555076,2,NA,0.996678352355957,1
1,1,63,critical,hwd,45,lower,1,1.2,133,57,57,133,65,65,2,w,0.991265058517456,1
1,1,64,critical,dwh,45,upper,3,3.1,117,117,125,200,200,125,3,h,1.1467695236206055,1
1,1,65,filler_square,NA,NA,NA,4,4.1,57.788187154783955,59.75468937113837,62.41808377474354,62.41808377474354,62.29897347101132,62.324748618099306,3,NA,1.6873059272766113,0
1,1,66,filler_square,NA,NA,NA,2.2,2.21,127.61693829294504,154.55596054271953,184.75691641046927,184.75691641046927,74.54532143947469,178.80966265181758,2,NA,1.419541835784912,1
1,1,67,filler_square,NA,NA,NA,2.2,2.21,162.40666449405046,162.40666449405046,94.30381450462295,112.73737767853709,108.50220520061083,66.50948719688583,1,NA,1.095574140548706,1
1,1,68,filler_random,NA,NA,NA,2.1,2.11,143.38036843460048,168.1235556450975,63.059981125150436,189.37849459165793,118.88593977965489,113.15964454993893,1,NA,1.5359899997711182,1
1,1,69,critical,dwh,60,lower,1,1.2,55,55,57,133,133,57,2,w,1.6285693645477295,1
1,1,70,critical,wdh,60,lower,2.1,2.12,57,133,55,55,133,57,3,h,2.2508463859558105,1
1,1,71,filler_random,NA,NA,NA,1,1.3,144.0945599488678,131.58782968692753,129.00208619981433,84.75621699504106,198.0910320614242,191.41571819261424,3,NA,1.3465361595153809,1
1,1,72,critical,dhw,60,lower,1,1.1,55,55,133,57,57,133,3,w,1.9514577388763428,1
1,1,73,critical,hwd,45,upper,2.1,2.11,200,125,125,200,117,117,2,w,0.95147705078125,1
1,1,74,critical,dhw,60,lower,4,4.1,55,55,133,57,57,133,2,h,1.1664373874664307,1
1,1,75,critical,wdh,60,lower,1,1.2,57,133,55,55,133,57,3,h,1.7207207679748535,1
1,1,76,filler_square,NA,NA,NA,2.2,2.21,66.72393007886765,86.79462173729662,61.010223928993355,66.12450718761374,89.9746720286643,89.9746720286643,3,NA,1.0479681491851807,1
1,1,77,critical,hdw,45,lower,3,3.2,133,57,65,65,57,133,1,h,2.2308480739593506,1
1,1,78,filler_square,NA,NA,NA,2.1,2.12,175.26543008289224,175.26543008289224,156.24903578036185,59.58744159226613,66.23522785826427,153.62986931269415,1,NA,0.9279191493988037,1
1,1,79,critical,wdh,45,upper,2.1,2.12,125,200,117,117,200,125,3,h,1.0613768100738525,1
1,1,80,filler_random,NA,NA,NA,2.1,2.12,101.86793992764495,162.87222701832252,125.6392830944296,106.64045871477045,198.37921854585872,130.40727434810802,3,NA,1.0947949886322021,1
1,1,81,critical,hwd,45,upper,2.1,2.11,200,125,125,200,117,117,2,w,1.1092755794525146,1
1,1,82,critical,hwd,60,upper,2.1,2.12,200,125,125,200,100,100,2,w,1.076289176940918,1
1,1,83,critical,dwh,60,lower,4,4.1,55,55,57,133,133,57,3,h,1.0345373153686523,1
1,1,84,filler_square,NA,NA,NA,4,4.2,175.75726719713654,169.78033974375143,167.58616367566822,107.0241146982288,181.36623255158716,181.36623255158716,3,NA,1.1603779792785645,1
1,1,85,filler_square,NA,NA,NA,3,3.2,169.51504687057962,169.51504687057962,132.49844596477195,115.94403050316937,102.29863274033642,153.2319657709862,1,NA,1.2033543586730957,1
1,1,86,critical,dhw,45,lower,2.1,2.11,65,65,133,57,57,133,3,w,1.0792317390441895,1
1,1,87,critical,dwh,45,lower,2.1,2.11,65,65,57,133,133,57,2,w,1.0314922332763672,1
1,1,88,critical,hdw,45,lower,2.1,2.12,133,57,65,65,57,133,3,w,2.2944540977478027,1
1,1,89,filler_square,NA,NA,NA,1,1.3,90.90503147431609,82.36791685226409,106.68615337331303,106.68615337331303,100.9942972134678,78.67970335937628,2,NA,1.248767375946045,1
1,1,90,filler_square,NA,NA,NA,4,4.2,102.18858313486608,161.04824307286736,130.09878103954725,131.03070722510193,182.53630408396535,182.53630408396535,3,NA,0.8773925304412842,1
1,1,91,critical,dwh,45,upper,2.1,2.12,117,117,125,200,200,125,2,w,1.0541820526123047,1
1,1,92,critical,hdw,45,upper,4,4.1,200,125,117,117,125,200,3,w,1.330225944519043,1
1,1,93,critical,hwd,60,upper,2.1,2.12,200,125,125,200,100,100,2,w,0.8397340774536133,1
1,1,94,critical,hdw,45,upper,3,3.2,200,125,117,117,125,200,3,w,0.9427595138549805,1
1,1,95,filler_square,NA,NA,NA,2.1,2.11,82.6839008732374,64.67217764238066,76.14806361427098,83.21087254409441,83.79799749470948,83.79799749470948,3,NA,2.578836679458618,1
1,1,96,filler_square,NA,NA,NA,3,3.2,119.89773284716637,114.23798901221663,117.50889044632382,62.57478428622461,125.58971938450841,125.58971938450841,3,NA,0.9132609367370605,1
1,1,97,critical,dwh,45,lower,1,1.2,65,65,57,133,133,57,3,h,1.185236930847168,1
1,1,98,catch,NA,NA,NA,4,4.2,102,88,67,123,152,173,3,NA,0.7726755142211914,1
1,1,99,critical,dhw,45,upper,1,1.3,117,117,200,125,125,200,2,h,0.9080252647399902,1
1,1,100,critical,dwh,60,lower,2.1,2.11,55,55,57,133,133,57,2,w,1.0442962646484375,1
1,1,101,filler_random,NA,NA,NA,4,4.2,199.76115884153978,135.16544138296484,146.72690600386827,60.38779912335303,58.2895280979716,86.751743959876,1,NA,0.8443543910980225,1
1,1,102,filler_random,NA,NA,NA,1,1.3,113.33600665839458,119.75276219409913,70.16602547166576,115.1664983536404,66.4164480527961,111.28709618825444,1,NA,0.9292092323303223,1
1,1,103,critical,whd,60,upper,2.1,2.12,125,200,200,125,100,100,2,h,1.0568156242370605,1
1,1,104,critical,wdh,60,upper,4,4.2,125,200,100,100,200,125,3,h,0.7004077434539795,1
1,1,105,critical,dhw,45,lower,2.1,2.11,65,65,133,57,57,133,3,w,0.9161734580993652,1
1,1,106,catch,NA,NA,NA,4,4.2,106,84,191,134,88,102,2,NA,0.8111996650695801,1
1,1,107,critical,hdw,45,lower,2.1,2.11,133,57,65,65,57,133,1,h,1.0225675106048584,1
1,1,108,critical,hdw,60,lower,1,1.1,133,57,55,55,57,133,3,w,0.8527162075042725,1
1,1,109,critical,hwd,45,lower,2.1,2.12,133,57,57,133,65,65,2,w,1.292461633682251,1
1,1,110,critical,hdw,60,lower,2.1,2.11,133,57,55,55,57,133,3,w,1.2079250812530518,1
1,1,111,critical,dhw,45,upper,3,3.2,117,117,200,125,125,200,2,h,0.9412722587585449,1
1,1,112,critical,hwd,45,upper,4,4.1,200,125,125,200,117,117,2,w,0.7449655532836914,1
1,1,113,critical,whd,60,lower,4,4.2,57,133,133,57,55,55,2,h,0.7785472869873047,1
1,1,114,critical,hwd,45,lower,3,3.1,133,57,57,133,65,65,2,w,0.5946743488311768,1
1,1,115,critical,wdh,60,upper,2.1,2.11,125,200,100,100,200,125,3,h,1.6604571342468262,1
1,1,116,filler_random,NA,NA,NA,1,1.3,137.84946007546506,72.45466800026595,69.77481369494458,120.95126582366379,151.60914094244066,142.5875554752554,3,NA,0.9448955059051514,1
1,1,117,filler_random,NA,NA,NA,2.2,2.21,92.72421534578977,137.5298326282139,171.70610105327142,90.94833864012287,196.7394875593585,147.73948661591515,3,NA,0.8106987476348877,1
1,1,118,filler_random,NA,NA,NA,2.2,2.22,79.46451032419512,199.80567992048205,107.57508973843431,179.4686593690023,113.79683877692932,170.34389471587141,3,NA,1.0868732929229736,1
1,1,119,critical,whd,60,lower,1,1.3,57,133,133,57,55,55,2,h,1.5233745574951172,1
1,1,120,filler_square,NA,NA,NA,2.2,2.21,60.9176691287227,60.1315870526275,61.31651118088152,61.31651118088152,58.07900747043825,57.29681834299971,2,NA,2.3257358074188232,1
1,1,121,filler_random,NA,NA,NA,4,4.2,94.32328670702803,114.03020618873862,183.2544075751743,151.12166383146229,86.45242810570699,196.99069416883827,2,NA,1.5614850521087646,1
1,1,122,critical,hdw,45,upper,1,1.3,200,125,117,117,125,200,3,w,2.0718138217926025,1
1,1,123,critical,hwd,45,upper,3,3.1,200,125,125,200,117,117,2,w,1.22426176071167,1
1,1,124,critical,dhw,60,lower,3,3.2,55,55,133,57,57,133,2,h,1.4948163032531738,1
1,1,125,critical,hdw,60,upper,1,1.2,200,125,100,100,125,200,3,w,2.0637717247009277,1
1,1,126,filler_random,NA,NA,NA,2.2,2.22,103.67560728144036,153.08055430858138,169.08319438370017,178.14574208062407,74.63916370445355,147.24892467856526,2,NA,0.8986897468566895,1
1,1,127,critical,hdw,60,lower,2.1,2.12,133,57,55,55,57,133,1,h,1.3332414627075195,1
1,1,128,critical,dwh,60,lower,2.1,2.12,55,55,57,133,133,57,2,w,1.5056304931640625,1
1,1,129,filler_square,NA,NA,NA,2.1,2.12,58.2900981722619,59.60510900848399,60.9876745062089,59.63644575168246,62.60397245035724,62.60397245035724,3,NA,1.2917759418487549,1
1,1,130,filler_random,NA,NA,NA,2.1,2.12,84.15393564663859,165.18898253815263,131.06886799268221,179.2938499413282,179.22605696344118,195.87180753670674,3,NA,0.8145573139190674,1
1,1,131,critical,whd,45,lower,3,3.1,57,133,133,57,65,65,2,h,2.5079171657562256,1
1,1,132,critical,wdh,45,lower,1,1.3,57,133,65,65,133,57,1,w,2.463491439819336,1
1,1,133,filler_square,NA,NA,NA,2.1,2.11,66.29903302993273,66.71332358696682,94.63881058243018,106.09804665087881,115.9064796534387,115.9064796534387,3,NA,2.409301519393921,1
1,1,134,catch,NA,NA,NA,1,1.2,181,144,63,127,87,103,1,NA,1.049433946609497,1
1,1,135,critical,dwh,60,upper,2.1,2.11,100,100,125,200,200,125,2,w,0.8507752418518066,1
1,1,136,critical,wdh,60,upper,2.1,2.12,125,200,100,100,200,125,1,w,1.9357383251190186,1
1,1,137,filler_random,NA,NA,NA,4,4.2,158.341647518476,128.63460028797957,183.68838866141203,190.7715089341125,123.99326726981238,119.18695139254496,2,NA,1.0802617073059082,1
1,1,138,filler_random,NA,NA,NA,2.2,2.21,101.76565927243468,147.02698908027625,141.76000450899318,159.96129328651682,66.1117578948322,193.8817312018276,2,NA,1.0272881984710693,1
1,1,139,critical,dwh,60,lower,3,3.2,55,55,57,133,133,57,3,h,1.1753838062286377,1
1,1,140,filler_random,NA,NA,NA,3,3.2,162.07549733442144,102.7798946688688,153.38541685325634,115.14562401984455,116.61612212034174,95.56616058164897,2,NA,1.122154951095581,1
1,1,141,filler_random,NA,NA,NA,1,1.3,69.13876201322321,71.91997948824964,109.99686138479242,61.073794016378145,87.8128041561732,110.63878879572093,2,NA,1.217752456665039,0
1,1,142,filler_square,NA,NA,NA,3,3.1,131.21679403025234,85.73198454039978,83.92637423522517,103.03382690138551,157.32362894888436,157.32362894888436,3,NA,0.857607364654541,1
1,1,143,critical,hdw,45,upper,2.1,2.12,200,125,117,117,125,200,3,w,1.5011265277862549,1
1,1,144,filler_random,NA,NA,NA,2.1,2.12,122.39099876945978,161.85659702230035,134.0552774479523,135.80652866597669,135.07744613412154,90.62834947983067,2,NA,0.8408691883087158,0
1,1,145,filler_square,NA,NA,NA,2.2,2.22,84.51904236322973,84.51904236322973,76.6068484748381,67.29819771242958,72.47796257539846,72.86681616891322,3,NA,1.36104154586792,0
1,1,146,critical,hdw,60,upper,3,3.1,200,125,100,100,125,200,3,w,1.1584157943725586,1
1,1,147,critical,whd,45,upper,2.1,2.11,125,200,200,125,117,117,2,h,1.095444917678833,1
1,1,148,critical,whd,60,upper,3,3.1,125,200,200,125,100,100,2,h,0.7660343647003174,1
1,1,149,filler_square,NA,NA,NA,2.1,2.12,88.95667701244926,88.95667701244926,66.49828194484085,74.06063444648416,79.80917591535994,71.6782483284736,1,NA,1.2429111003875732,1
1,1,150,critical,whd,60,upper,4,4.1,125,200,200,125,100,100,2,h,1.0097942352294922,1
1,1,151,filler_square,NA,NA,NA,4,4.1,133.77509588679385,70.63833060043197,98.73138946451505,126.40697612657496,150.46923595091,150.46923595091,3,NA,0.8534159660339355,1
1,1,152,filler_square,NA,NA,NA,1,1.1,60.36652519450921,86.01930779853062,85.62671701727234,61.08369238212487,93.17003303285418,93.17003303285418,3,NA,1.0645246505737305,1
1,1,153,filler_random,NA,NA,NA,2.1,2.12,83.43825438621673,164.3100135426038,165.36281208599718,103.23945924904893,146.09578515190802,142.19139014876487,3,NA,0.9488120079040527,1
1,1,154,critical,dwh,45,upper,2.1,2.12,117,117,125,200,200,125,2,w,1.715256929397583,1
1,1,155,critical,hwd,45,lower,4,4.2,133,57,57,133,65,65,2,w,1.2863848209381104,1
1,1,156,filler_square,NA,NA,NA,3,3.1,58.91950101259333,60.15882119028585,75.92975790589065,75.92975790589065,73.01076610826298,73.25385464968296,2,NA,1.0903167724609375,1
1,1,157,filler_square,NA,NA,NA,2.1,2.11,91.05800756216665,91.05800756216665,82.28714498420489,90.7228119970426,86.88210920367328,90.10153801375336,2,NA,0.8968467712402344,0
1,1,158,filler_square,NA,NA,NA,4,4.2,75.14313081713959,93.8676432314956,72.33630015420752,87.75534006740904,143.32336975682006,143.32336975682006,3,NA,0.8665595054626465,1
1,1,159,filler_random,NA,NA,NA,1,1.2,85.66628883519083,141.4950752209319,141.25107724218623,160.56380433717084,120.75315537784485,157.4885913947031,2,NA,1.1159133911132812,1
1,1,160,filler_square,NA,NA,NA,2.1,2.12,134.9207202754498,127.76165623811336,130.2438162438452,106.76771323277754,150.5818223404076,150.5818223404076,3,NA,1.1581201553344727,1
1,1,161,critical,dwh,45,lower,3,3.2,65,65,57,133,133,57,2,w,0.9186756610870361,1
1,1,162,filler_square,NA,NA,NA,2.1,2.11,158.79310355677538,158.79310355677538,89.47717032102648,156.9116514542471,75.17697916596859,133.42392584391158,1,NA,1.2170395851135254,1
1,1,163,critical,dhw,60,lower,2.1,2.11,55,55,133,57,57,133,2,h,0.8563652038574219,1
1,1,164,critical,wdh,45,lower,2.1,2.11,57,133,65,65,133,57,1,w,1.1161293983459473,1
1,1,165,critical,dwh,45,upper,1,1.1,117,117,125,200,200,125,3,h,0.9892785549163818,1
1,1,166,filler_random,NA,NA,NA,1,1.3,84.9732512399057,163.0779068189201,69.4255777831983,136.4209342470789,136.35239113583384,107.14133345154224,3,NA,2.012479066848755,1
1,1,167,critical,hdw,45,lower,1,1.3,133,57,65,65,57,133,1,h,1.2079010009765625,1
1,1,168,filler_random,NA,NA,NA,2.1,2.12,165.78637308390478,140.22403229684195,125.89247106273575,188.70357978591642,114.3334090398373,68.58616672109102,2,NA,1.0808286666870117,1
1,1,169,filler_random,NA,NA,NA,1,1.1,146.13892455868017,71.97134712064026,75.98007388158506,192.86598083442718,142.23479060589327,70.3670109302522,2,NA,0.9498505592346191,1
1,1,170,filler_square,NA,NA,NA,2.1,2.12,153.60725450101674,98.00113791076227,161.4180663719423,161.4180663719423,144.5148380065349,120.29340467872024,2,NA,0.9999024868011475,1
1,1,171,filler_random,NA,NA,NA,4,4.1,128.69963549653923,134.77069643005143,63.24902693519294,162.45660488695657,91.34689334484638,156.94264693219748,1,NA,1.9045779705047607,1
1,1,172,critical,hwd,60,lower,2.1,2.11,133,57,57,133,55,55,2,w,0.9894688129425049,1
1,1,173,catch,NA,NA,NA,4,4.2,117,73,61,129,188,137,3,NA,0.7493138313293457,1
1,1,174,critical,dwh,60,upper,3,3.2,100,100,125,200,200,125,2,w,0.787041425704956,1
1,1,175,filler_random,NA,NA,NA,3,3.1,166.94514187480183,198.27693388703094,80.45871220414224,64.1431677548549,165.43554941860606,110.45581359026289,1,NA,1.552847146987915,1
1,1,176,critical,dhw,45,upper,4,4.2,117,117,200,125,125,200,3,w,0.7456603050231934,1
1,1,177,critical,dhw,45,lower,3,3.2,65,65,133,57,57,133,2,h,0.8383524417877197,1
1,1,178,filler_random,NA,NA,NA,4,4.2,186.95215181913926,147.56564938572205,69.8664303082049,98.85485694171268,116.89247594012289,158.40037231755588,1,NA,0.8131308555603027,1
1,1,179,critical,dhw,45,lower,1,1.2,65,65,133,57,57,133,2,h,0.9183833599090576,1
1,1,180,critical,wdh,45,lower,2.1,2.12,57,133,65,65,133,57,3,h,1.1603055000305176,1
1,1,181,critical,whd,60,lower,3,3.1,57,133,133,57,55,55,2,h,0.7062995433807373,1
1,1,182,critical,hwd,60,upper,4,4.2,200,125,125,200,100,100,2,w,1.3995943069458008,1
1,1,183,critical,dhw,60,upper,4,4.2,100,100,200,125,125,200,3,w,1.0528366565704346,1
1,1,184,critical,dhw,60,upper,1,1.1,100,100,200,125,125,200,3,w,0.8858990669250488,1
1,1,185,critical,hdw,60,lower,4,4.2,133,57,55,55,57,133,1,h,1.1962683200836182,1
1,1,186,critical,whd,45,upper,4,4.1,125,200,200,125,117,117,2,h,0.8672659397125244,1
1,1,187,filler_random,NA,NA,NA,1,1.3,75.01550729354794,84.57901635127817,197.40494697919698,62.26882011789969,113.26184855203064,61.43339995352228,2,NA,0.9713797569274902,1
1,1,188,critical,dwh,45,lower,4,4.1,65,65,57,133,133,57,3,h,1.0684306621551514,1
1,1,189,filler_random,NA,NA,NA,4,4.2,112.43397531543759,119.19477402382603,111.96363518002441,198.36684453421776,196.4394311150324,92.64505160076288,2,NA,1.1501736640930176,1
1,1,190,critical,dwh,60,upper,2.1,2.12,100,100,125,200,200,125,2,w,0.9838728904724121,1
1,1,191,filler_square,NA,NA,NA,1,1.2,110.5236943160769,150.0961829358814,153.2358406207718,153.2358406207718,126.77512845151013,79.08384029889831,2,NA,0.8644249439239502,1
1,1,192,critical,dwh,60,upper,4,4.2,100,100,125,200,200,125,2,w,0.9917705059051514,1
1,1,193,critical,wdh,45,upper,3,3.1,125,200,117,117,200,125,3,h,1.3538713455200195,1
1,1,194,filler_random,NA,NA,NA,2.2,2.22,186.57012962223865,98.67754618728898,83.63393456071157,115.64678812107617,112.18694438145975,123.50828321019821,1,NA,0.8738949298858643,1
1,1,195,critical,wdh,60,lower,4,4.2,57,133,55,55,133,57,3,h,1.174649953842163,1
1,1,196,critical,dhw,45,upper,2.1,2.11,117,117,200,125,125,200,3,w,1.3087475299835205,1
1,1,197,critical,hwd,60,lower,4,4.2,133,57,57,133,55,55,2,w,1.1694746017456055,1
1,1,198,critical,hwd,60,lower,3,3.1,133,57,57,133,55,55,2,w,1.1132075786590576,1
1,1,199,filler_square,NA,NA,NA,3,3.2,150.6625177074397,150.6625177074397,106.40048910996086,64.93683749319894,112.50359005278523,97.34077358273593,1,NA,0.9533588886260986,1
1,1,200,critical,dhw,45,upper,2.1,2.12,117,117,200,125,125,200,3,w,0.9360880851745605,1
1,1,201,filler_random,NA,NA,NA,1,1.1,162.43609040537316,192.82324465118066,102.9738390539845,58.45054984319517,195.24991498309683,170.7287514459502,3,NA,0.8732044696807861,1
1,1,202,filler_square,NA,NA,NA,2.2,2.22,189.5857657611485,189.5857657611485,148.83012122158163,158.5766157671266,168.78190699492004,171.94376997292363,3,NA,0.9627194404602051,0
1,1,203,filler_random,NA,NA,NA,2.2,2.22,179.82572176712074,153.3721389006098,135.2541977661063,74.31664108134768,104.38433787194953,171.07042438635904,1,NA,0.9044182300567627,1
1,1,204,critical,hdw,60,upper,2.1,2.12,200,125,100,100,125,200,3,w,0.8455731868743896,1
1,1,205,critical,hwd,45,lower,2.1,2.11,133,57,57,133,65,65,1,h,1.9426534175872803,1
1,1,206,filler_random,NA,NA,NA,1,1.2,110.47320096300054,74.2998734825698,78.97139364804,63.46186971601689,146.02438472421846,140.72841389379735,3,NA,0.8691728115081787,1
1,1,207,critical,hdw,45,lower,4,4.2,133,57,65,65,57,133,3,w,1.5531456470489502,1
1,1,208,filler_square,NA,NA,NA,2.1,2.12,105.89339609646277,98.35005325264905,90.69139383037557,80.88517061958194,139.7720623859127,139.7720623859127,3,NA,1.0924427509307861,1
1,1,209,filler_square,NA,NA,NA,4,4.1,100.29240367636467,86.4671568490118,119.2416249710169,119.2416249710169,79.36567183208575,63.03721108538727,2,NA,0.8312857151031494,1
1,1,210,filler_square,NA,NA,NA,2.2,2.22,136.51998522078952,136.51998522078952,79.6506667705795,98.62244950231485,105.99026210269666,105.49077029822737,1,NA,1.043158769607544,1
1,2,1,filler_square,NA,NA,NA,3,3.1,165.28388396378978,147.94088269573734,69.33527537560448,143.55323779703036,185.9290039122384,185.9290039122384,3,NA,4.498612880706787,1
1,2,2,critical,whd,45,upper,4,4.1,125,200,200,125,117,117,2,h,0.8883035182952881,1
1,2,3,critical,whd,45,lower,2.1,2.12,57,133,133,57,65,65,2,h,1.5239343643188477,1
1,2,4,critical,hwd,60,upper,4,4.1,200,125,125,200,100,100,2,w,0.9347658157348633,1
1,2,5,critical,wdh,60,lower,4,4.2,57,133,55,55,133,57,3,h,1.065546989440918,1
1,2,6,filler_square,NA,NA,NA,2.2,2.21,64.71894355034561,83.5471912644261,107.94678924595269,107.94678924595269,94.02982003896835,81.83478937831649,2,NA,0.9561913013458252,1
