thisN,thisTrialN,thisRepN,effect,order,distance,config,diag,h_1,w_1,h_2,w_2,h_3,w_3,rect_choice.keys,rect_choice.rt,rect_choice.duration,instructions_loop.thisRepN,instructions_loop.thisTrialN,instructions_loop.thisN,instructions_loop.thisIndex,blocks.thisRepN,blocks.thisTrialN,blocks.thisN,blocks.thisIndex,trials.thisRepN,trials.thisTrialN,trials.thisN,trials.thisIndex,thisRow.t,notes,consent.started,agree_button.started,decline_button.started,consent_img.started,mouse.started,consent.stopped,agree_button.numClicks,agree_button.timesOn,agree_button.timesOff,decline_button.numClicks,decline_button.timesOn,decline_button.timesOff,mouse.x,mouse.y,mouse.leftButton,mouse.midButton,mouse.rightButton,mouse.time,mouse.clicked_name,exp_params.started,exp_params.stopped,welcome.started,welcome_text.started,welcome.stopped,instructions_1.started,instructions_1_text_1.started,instructions_1_text_2.started,key_resp.started,instructions_1.stopped,instructions_loop.key_resp.keys,instructions_loop.key_resp.rt,instructions_loop.key_resp.duration,instructions_2.started,instructions_2_text_1.started,instructions_2_text_2.started,key_resp_2.started,instructions_2.stopped,instructions_loop.key_resp_2.keys,instructions_loop.key_resp_2.rt,instructions_loop.key_resp_2.duration,instructions_3.started,instructions_3_text_1.started,r1_instr3.started,r2_instr3.started,r3_instr3.started,r1_instr3_label.started,r2_instr3_label.started,r3_instr3_label.started,instructions_3_text_3.started,instructions_3_text_4.started,key_resp_3.started,instructions_3.stopped,instructions_loop.key_resp_3.keys,instructions_loop.key_resp_3.rt,instructions_loop.key_resp_3.duration,instructions_4.started,instructions_4_text_1.started,instructions_4_text_3.started,instructions_4_text_2.started,key_resp_4.started,instructions_4.stopped,instructions_loop.key_resp_4.keys,instructions_loop.key_resp_4.rt,instructions_loop.key_resp_4.duration,instructions_5.started,instructions_5_text_1.started,instructions_5_text_2.started,key_resp_5.started,instructions_5.stopped,instructions_loop.key_resp_5.keys,instructions_loop.key_resp_5.rt,instructions_loop.key_resp_5.duration,start_exp.started,start_exp_text.started,key_resp_6.started,start_exp.stopped,key_resp_6.keys,key_resp_6.rt,key_resp_6.duration,h_1_tmp,w_1_tmp,h_2_tmp,w_2_tmp,h_3_tmp,w_3_tmp,config_tmp,config_tmp_1,r_1_x,r_1_y,r_2_x,r_2_y,r_3_x,r_3_y,pre_trial.started,pre_trial.stopped,choice_trial.started,rect_choice.started,r_1.started,r_2.started,r_3.started,r_1_label.started,r_2_label.started,r_3_label.started,prompt.started,choice_trial.stopped,trials.rect_choice.keys,trials.rect_choice.rt,trials.rect_choice.duration,end_block.started,end_block_text.started,end_block.stopped,end.started,end_text.started,key_resp_7.started,end.stopped,key_resp_7.keys,key_resp_7.rt,key_resp_7.duration,debriefing.started,debrief_form.started,end_debrief.started,debriefing.stopped,end_debrief.keys,end_debrief.rt,end_debrief.duration,participant,computer,date,expName,psychopyVersion,frameRate,expStart,
,,,,,,,,,,,,,,,,,,,,,,,,,,,,,,,0.014994144439697266,0.035884857177734375,0.035884857177734375,0.035884857177734375,0.014801502227783203,4.807796478271484,1,[4.769416093826294],[4.769440650939941],0,,,[-96.0],[-494.0],[1],[0],[0],[4.792332649230957],['agree_button'],,,,,,,,,,,,,,,,,,,,,,,,,,,,,,,,,,,,,,,,,,,,,,,,,,,,,,,,,,,,,,,,,,,,,,,,,,,,,,,,,,,,,,,,,,,,,,,,,,,,,,,,,,,10,4,2025-02-13_11h54.45.141,comp,2024.2.5,57.856618681615785,2025-02-13 12h01.15.967628 -0500,
,,,,,,,,,,,,,,,,,,,,,,,,,,,,,,,,,,,,,,,,,,,,,,,,,,4.808320760726929,4.808389663696289,,,,,,,,,,,,,,,,,,,,,,,,,,,,,,,,,,,,,,,,,,,,,,,,,,,,,,,,,,,,,,,,,,,,,,,,,,,,,,,,,,,,,,,,,,,,,,,,,,,,,,,,,10,4,2025-02-13_11h54.45.141,comp,2024.2.5,57.856618681615785,2025-02-13 12h01.15.967628 -0500,
,,,,,,,,,,,,,,,,,,,,,,,,,,,,,,,,,,,,,,,,,,,,,,,,,,,,4.808434963226318,4.82533860206604,6.8149495124816895,,,,,,,,,,,,,,,,,,,,,,,,,,,,,,,,,,,,,,,,,,,,,,,,,,,,,,,,,,,,,,,,,,,,,,,,,,,,,,,,,,,,,,,,,,,,,,,,,,,,,,10,4,2025-02-13_11h54.45.141,comp,2024.2.5,57.856618681615785,2025-02-13 12h01.15.967628 -0500,
0,0,0,,,,,,,,,,,,,,,0,0,0,0,,,,,,,,,6.831441402435303,,,,,,,,,,,,,,,,,,,,,,,,,,6.815807342529297,6.831441402435303,6.831441402435303,8.315311431884766,13.61857008934021,space,5.295778274536133,None,13.61871886253357,13.634824752807617,13.634824752807617,15.13431692123413,24.08813977241516,space,8.948515892028809,None,24.08828830718994,24.11776065826416,24.11776065826416,24.11776065826416,24.11776065826416,24.11776065826416,24.11776065826416,24.11776065826416,24.11776065826416,24.11776065826416,25.597135066986084,30.246392726898193,space,4.6454994678497314,None,30.246556520462036,30.266493558883667,30.266493558883667,30.266493558883667,31.75633454322815,37.74294328689575,space,5.975970268249512,None,37.74309682846069,37.75652289390564,37.75652289390564,39.24195575714111,40.026933670043945,space,0.7771205902099609,None,40.02714157104492,40.04029083251953,40.04029083251953,40.97571015357971,space,0.9305710792541504,None,,,,,,,,,,,,,,,,,,,,,,,,,,,,,,,,,,,,,,,,,,,,,,,10,4,2025-02-13_11h54.45.141,comp,2024.2.5,57.856618681615785,2025-02-13 12h01.15.967628 -0500,
0,0,0,critical,whd,45.0,4.0,upper,125.0,200.0,200.0,125.0,117.0,117.0,2,2.4494056701660156,None,,,,,0,0,0,0,0,0,0,89,41.07306957244873,,,,,,,,,,,,,,,,,,,,,,,,,,,,,,,,,,,,,,,,,,,,,,,,,,,,,,,,,,,,,,,,,,,,,,,,,,,,,,,,,125.0,200.0,200.0,125.0,117.0,117.0,4.0,4.2,-258,-5,0,-257,217,15,41.05638337135315,41.05642008781433,41.05780649185181,41.07306957244873,41.22092938423157,41.22092938423157,41.22092938423157,41.22092938423157,41.22092938423157,41.22092938423157,41.22092938423157,43.53809094429016,2,2.4494056701660156,None,,,,,,,,,,,,,,,,,,10,4,2025-02-13_11h54.45.141,comp,2024.2.5,57.856618681615785,2025-02-13 12h01.15.967628 -0500,
1,1,0,filler_square,None,None,None,None,None,None,None,None,None,None,3,3.944561719894409,None,,,,,0,0,0,0,0,1,1,178,43.55485248565674,,,,,,,,,,,,,,,,,,,,,,,,,,,,,,,,,,,,,,,,,,,,,,,,,,,,,,,,,,,,,,,,,,,,,,,,,,,,,,,,,104.90656932793442,84.83673681607446,90.74643147467054,130.22477053878134,155.4564327555359,155.4564327555359,4.0,4.1,-204,-281,0,-17,239,-273,43.54014444351196,43.54022216796875,43.543447732925415,43.55485248565674,43.69533371925354,43.69533371925354,43.69533371925354,43.69533371925354,43.69533371925354,43.69533371925354,43.69533371925354,47.517088890075684,3,3.944561719894409,None,,,,,,,,,,,,,,,,,,10,4,2025-02-13_11h54.45.141,comp,2024.2.5,57.856618681615785,2025-02-13 12h01.15.967628 -0500,
2,2,0,critical,hwd,60.0,2.1,upper,200.0,125.0,125.0,200.0,100.0,100.0,1,7.7495198249816895,None,,,,,0,0,0,0,0,2,2,43,47.53350639343262,,,,,,,,,,,,,,,,,,,,,,,,,,,,,,,,,,,,,,,,,,,,,,,,,,,,,,,,,,,,,,,,,,,,,,,,,,,,,,,,,200.0,125.0,125.0,200.0,100.0,100.0,2.1,2.11,-258,267,0,267,246,-269,47.51880073547363,47.51896929740906,47.522255182266235,47.53350639343262,47.6773145198822,47.6773145198822,47.6773145198822,47.6773145198822,47.6773145198822,47.6773145198822,47.6773145198822,55.2995491027832,1,7.7495198249816895,None,,,,,,,,,,,,,,,,,,10,4,2025-02-13_11h54.45.141,comp,2024.2.5,57.856618681615785,2025-02-13 12h01.15.967628 -0500,
3,3,0,catch,None,None,None,None,None,None,None,None,None,None,1,1.7188806533813477,None,,,,,0,0,0,0,0,3,3,128,55.315773725509644,,,,,,,,,,,,,,,,,,,,,,,,,,,,,,,,,,,,,,,,,,,,,,,,,,,,,,,,,,,,,,,,,,,,,,,,,,,,,,,,,180,145,133,57,107,83,2.2,2.22,-197,252,0,-271,166,-269,55.30169916152954,55.301783084869385,55.305341482162476,55.315773725509644,55.46178674697876,55.46178674697876,55.46178674697876,55.46178674697876,55.46178674697876,55.46178674697876,55.46178674697876,57.048908710479736,1,1.7188806533813477,None,,,,,,,,,,,,,,,,,,10,4,2025-02-13_11h54.45.141,comp,2024.2.5,57.856618681615785,2025-02-13 12h01.15.967628 -0500,
4,4,0,critical,dhw,45.0,2.1,lower,65.0,65.0,133.0,57.0,57.0,133.0,3,5.363122940063477,None,,,,,0,0,0,0,0,4,4,0,57.06440830230713,,,,,,,,,,,,,,,,,,,,,,,,,,,,,,,,,,,,,,,,,,,,,,,,,,,,,,,,,,,,,,,,,,,,,,,,,,,,,,,,,65.0,65.0,133.0,57.0,57.0,133.0,2.1,2.11,-157,284,0,286,191,-252,57.05048656463623,57.05056381225586,57.054003953933716,57.06440830230713,57.214282751083374,57.214282751083374,57.214282751083374,57.214282751083374,57.214282751083374,57.214282751083374,57.214282751083374,62.43311834335327,3,5.363122940063477,None,,,,,,,,,,,,,,,,,,10,4,2025-02-13_11h54.45.141,comp,2024.2.5,57.856618681615785,2025-02-13 12h01.15.967628 -0500,
5,5,0,filler_square,None,None,None,None,None,None,None,None,None,None,2,2.3854637145996094,None,,,,,0,0,0,0,0,5,5,203,62.44938135147095,,,,,,,,,,,,,,,,,,,,,,,,,,,,,,,,,,,,,,,,,,,,,,,,,,,,,,,,,,,,,,,,,,,,,,,,,,,,,,,,,108.47394079718032,132.8689742150992,163.36316077311417,163.36316077311417,94.71267172148191,57.870459233017385,2.2,2.22,-244,266,0,-268,207,-261,62.4349422454834,62.43502616882324,62.438096046447754,62.44938135147095,62.60502862930298,62.60502862930298,62.60502862930298,62.60502862930298,62.60502862930298,62.60502862930298,62.60502862930298,64.85158729553223,2,2.3854637145996094,None,,,,,,,,,,,,,,,,,,10,4,2025-02-13_11h54.45.141,comp,2024.2.5,57.856618681615785,2025-02-13 12h01.15.967628 -0500,
6,6,0,critical,dwh,45.0,4.0,upper,117.0,117.0,125.0,200.0,200.0,125.0,2,2.447829008102417,None,,,,,0,0,0,0,0,6,6,65,64.86720442771912,,,,,,,,,,,,,,,,,,,,,,,,,,,,,,,,,,,,,,,,,,,,,,,,,,,,,,,,,,,,,,,,,,,,,,,,,,,,,,,,,117.0,117.0,125.0,200.0,200.0,125.0,4.0,4.2,-254,-2,0,-266,258,0,64.85325169563293,64.85333228111267,64.85688281059265,64.86720442771912,65.01782321929932,65.01782321929932,65.01782321929932,65.01782321929932,65.01782321929932,65.01782321929932,65.01782321929932,67.3201277256012,2,2.447829008102417,None,,,,,,,,,,,,,,,,,,10,4,2025-02-13_11h54.45.141,comp,2024.2.5,57.856618681615785,2025-02-13 12h01.15.967628 -0500,
7,7,0,filler_square,None,None,None,None,None,None,None,None,None,None,1,1.5535213947296143,None,,,,,0,0,0,0,0,7,7,176,67.33742308616638,,,,,,,,,,,,,,,,,,,,,,,,,,,,,,,,,,,,,,,,,,,,,,,,,,,,,,,,,,,,,,,,,,,,,,,,,,,,,,,,,122.93753300457954,122.93753300457954,99.26265299067771,77.71655958291797,102.32394966876083,75.00629780710489,2.1,2.12,-196,-260,0,-265,172,259,67.32221055030823,67.32229042053223,67.32562732696533,67.33742308616638,67.48642349243164,67.48642349243164,67.48642349243164,67.48642349243164,67.48642349243164,67.48642349243164,67.48642349243164,68.90418362617493,1,1.5535213947296143,None,,,,,,,,,,,,,,,,,,10,4,2025-02-13_11h54.45.141,comp,2024.2.5,57.856618681615785,2025-02-13 12h01.15.967628 -0500,
8,8,0,catch,None,None,None,None,None,None,None,None,None,None,1,1.5563673973083496,None,,,,,0,0,0,0,0,8,8,127,68.92005705833435,,,,,,,,,,,,,,,,,,,,,,,,,,,,,,,,,,,,,,,,,,,,,,,,,,,,,,,,,,,,,,,,,,,,,,,,,,,,,,,,,137,188,131,59,113,77,3.0,3.1,-220,287,0,17,164,-281,68.9062750339508,68.90635657310486,68.9096953868866,68.92005705833435,69.0727186203003,69.0727186203003,69.0727186203003,69.0727186203003,69.0727186203003,69.0727186203003,69.0727186203003,70.48712539672852,1,1.5563673973083496,None,,,,,,,,,,,,,,,,,,10,4,2025-02-13_11h54.45.141,comp,2024.2.5,57.856618681615785,2025-02-13 12h01.15.967628 -0500,
9,9,0,filler_square,None,None,None,None,None,None,None,None,None,None,3,1.9867990016937256,None,,,,,0,0,0,0,0,9,9,170,70.50397562980652,,,,,,,,,,,,,,,,,,,,,,,,,,,,,,,,,,,,,,,,,,,,,,,,,,,,,,,,,,,,,,,,,,,,,,,,,,,,,,,,,131.3321622055878,106.45694340986483,132.78048466847972,62.95420134049044,161.68139802873586,161.68139802873586,2.2,2.22,-181,290,0,-260,208,-285,70.48923921585083,70.48932099342346,70.49317669868469,70.50397562980652,70.65104556083679,70.65104556083679,70.65104556083679,70.65104556083679,70.65104556083679,70.65104556083679,70.65104556083679,72.5047812461853,3,1.9867990016937256,None,,,,,,,,,,,,,,,,,,10,4,2025-02-13_11h54.45.141,comp,2024.2.5,57.856618681615785,2025-02-13 12h01.15.967628 -0500,
10,10,0,filler_random,None,None,None,None,None,None,None,None,None,None,3,1.6819770336151123,None,,,,,0,0,0,0,0,10,10,169,72.52075433731079,,,,,,,,,,,,,,,,,,,,,,,,,,,,,,,,,,,,,,,,,,,,,,,,,,,,,,,,,,,,,,,,,,,,,,,,,,,,,,,,,120.47392899138764,78.54181272929483,57.60690260081367,113.10780675735717,149.57224132039,122.70361820256838,1.0,1.3,288,-261,480,-272,694,-283,72.50690007209778,72.50698518753052,72.51041412353516,72.52075433731079,72.6727831363678,72.6727831363678,72.6727831363678,72.6727831363678,72.6727831363678,72.6727831363678,72.6727831363678,74.20511245727539,3,1.6819770336151123,None,,,,,,,,,,,,,,,,,,10,4,2025-02-13_11h54.45.141,comp,2024.2.5,57.856618681615785,2025-02-13 12h01.15.967628 -0500,
11,11,0,filler_square,None,None,None,None,None,None,None,None,None,None,3,2.8372671604156494,None,,,,,0,0,0,0,0,11,11,198,74.22163224220276,,,,,,,,,,,,,,,,,,,,,,,,,,,,,,,,,,,,,,,,,,,,,,,,,,,,,,,,,,,,,,,,,,,,,,,,,,,,,,,,,59.416513643929044,77.2868683060755,57.957033604341945,65.85001496472401,78.52316203253666,78.52316203253666,4.0,4.1,-168,-290,0,5,168,-253,74.2072274684906,74.20731472969055,74.21071195602417,74.22163224220276,74.37625908851624,74.37625908851624,74.37625908851624,74.37625908851624,74.37625908851624,74.37625908851624,74.37625908851624,77.07401394844055,3,2.8372671604156494,None,,,,,,,,,,,,,,,,,,10,4,2025-02-13_11h54.45.141,comp,2024.2.5,57.856618681615785,2025-02-13 12h01.15.967628 -0500,
12,12,0,filler_square,None,None,None,None,None,None,None,None,None,None,2,1.650275468826294,None,,,,,0,0,0,0,0,12,12,193,77.08920860290527,,,,,,,,,,,,,,,,,,,,,,,,,,,,,,,,,,,,,,,,,,,,,,,,,,,,,,,,,,,,,,,,,,,,,,,,,,,,,,,,,101.11619689544483,116.15529691638702,163.4831399640706,163.4831399640706,78.72344380490894,85.79398914072468,2.2,2.21,-236,-252,0,272,221,275,77.07584238052368,77.07595753669739,77.078937292099,77.08920860290527,77.23903918266296,77.23903918266296,77.23903918266296,77.23903918266296,77.23903918266296,77.23903918266296,77.23903918266296,78.7442467212677,2,1.650275468826294,None,,,,,,,,,,,,,,,,,,10,4,2025-02-13_11h54.45.141,comp,2024.2.5,57.856618681615785,2025-02-13 12h01.15.967628 -0500,
13,13,0,critical,wdh,60.0,1.0,upper,125.0,200.0,100.0,100.0,200.0,125.0,1,2.483476161956787,None,,,,,0,0,0,0,0,13,13,79,78.7594678401947,,,,,,,,,,,,,,,,,,,,,,,,,,,,,,,,,,,,,,,,,,,,,,,,,,,,,,,,,,,,,,,,,,,,,,,,,,,,,,,,,125.0,200.0,100.0,100.0,200.0,125.0,1.0,1.2,-246,-10,0,-19,208,-17,78.74574637413025,78.74582529067993,78.74872207641602,78.7594678401947,78.90553975105286,78.90553975105286,78.90553975105286,78.90553975105286,78.90553975105286,78.90553975105286,78.90553975105286,81.2561411857605,1,2.483476161956787,None,,,,,,,,,,,,,,,,,,10,4,2025-02-13_11h54.45.141,comp,2024.2.5,57.856618681615785,2025-02-13 12h01.15.967628 -0500,
14,14,0,filler_random,None,None,None,None,None,None,None,None,None,None,3,3.056253433227539,None,,,,,0,0,0,0,0,14,14,149,81.27468347549438,,,,,,,,,,,,,,,,,,,,,,,,,,,,,,,,,,,,,,,,,,,,,,,,,,,,,,,,,,,,,,,,,,,,,,,,,,,,,,,,,176.36338218610013,67.86023224795154,111.80333785726322,129.75040373887333,119.50216788530186,160.57316865626672,4.0,4.1,-195,-281,0,-16,241,-265,81.25782585144043,81.25794625282288,81.26108002662659,81.27468347549438,81.41218543052673,81.41218543052673,81.41218543052673,81.41218543052673,81.41218543052673,81.41218543052673,81.41218543052673,84.3408317565918,3,3.056253433227539,None,,,,,,,,,,,,,,,,,,10,4,2025-02-13_11h54.45.141,comp,2024.2.5,57.856618681615785,2025-02-13 12h01.15.967628 -0500,
15,15,0,catch,None,None,None,None,None,None,None,None,None,None,2,1.325143575668335,None,,,,,0,0,0,0,0,15,15,123,84.35770153999329,,,,,,,,,,,,,,,,,,,,,,,,,,,,,,,,,,,,,,,,,,,,,,,,,,,,,,,,,,,,,,,,,,,,,,,,,,,,,,,,,118,72,199,126,131,59,4.0,4.2,-195,-18,0,-266,188,-11,84.34276223182678,84.34284448623657,84.34624290466309,84.35770153999329,84.50696325302124,84.50696325302124,84.50696325302124,84.50696325302124,84.50696325302124,84.50696325302124,84.50696325302124,85.6956377029419,2,1.325143575668335,None,,,,,,,,,,,,,,,,,,10,4,2025-02-13_11h54.45.141,comp,2024.2.5,57.856618681615785,2025-02-13 12h01.15.967628 -0500,
16,16,0,critical,dhw,60.0,1.0,lower,55.0,55.0,133.0,57.0,57.0,133.0,2,5.61496901512146,None,,,,,0,0,0,0,0,16,16,54,85.71600580215454,,,,,,,,,,,,,,,,,,,,,,,,,,,,,,,,,,,,,,,,,,,,,,,,,,,,,,,,,,,,,,,,,,,,,,,,,,,,,,,,,55.0,55.0,133.0,57.0,57.0,133.0,1.0,1.1,-632,272,-480,286,-289,257,85.69716501235962,85.69724583625793,85.70044827461243,85.71600580215454,85.85771822929382,85.85771822929382,85.85771822929382,85.85771822929382,85.85771822929382,85.85771822929382,85.85771822929382,91.34230279922485,2,5.61496901512146,None,,,,,,,,,,,,,,,,,,10,4,2025-02-13_11h54.45.141,comp,2024.2.5,57.856618681615785,2025-02-13 12h01.15.967628 -0500,
17,17,0,filler_random,None,None,None,None,None,None,None,None,None,None,1,1.284301996231079,None,,,,,0,0,0,0,0,17,17,144,91.35876655578613,,,,,,,,,,,,,,,,,,,,,,,,,,,,,,,,,,,,,,,,,,,,,,,,,,,,,,,,,,,,,,,,,,,,,,,,,,,,,,,,,142.50311251980972,193.9321517684046,63.303281864595164,132.1627542360543,120.33802987910559,127.69928424939611,1.0,1.2,-259,-1,0,-9,226,-6,91.34393906593323,91.34402012825012,91.34720993041992,91.35876655578613,91.51531672477722,91.51531672477722,91.51531672477722,91.51531672477722,91.51531672477722,91.51531672477722,91.51531672477722,92.6597192287445,1,1.284301996231079,None,,,,,,,,,,,,,,,,,,10,4,2025-02-13_11h54.45.141,comp,2024.2.5,57.856618681615785,2025-02-13 12h01.15.967628 -0500,
18,18,0,catch,None,None,None,None,None,None,None,None,None,None,1,0.900428295135498,None,,,,,0,0,0,0,0,18,18,126,92.67876744270325,,,,,,,,,,,,,,,,,,,,,,,,,,,,,,,,,,,,,,,,,,,,,,,,,,,,,,,,,,,,,,,,,,,,,,,,,,,,,,,,,199,126,103,87,119,71,2.1,2.11,-202,270,0,257,175,-270,92.66159224510193,92.66167211532593,92.66475033760071,92.67876744270325,92.82658386230469,92.82658386230469,92.82658386230469,92.82658386230469,92.82658386230469,92.82658386230469,92.82658386230469,93.59333229064941,1,0.900428295135498,None,,,,,,,,,,,,,,,,,,10,4,2025-02-13_11h54.45.141,comp,2024.2.5,57.856618681615785,2025-02-13 12h01.15.967628 -0500,
19,19,0,filler_square,None,None,None,None,None,None,None,None,None,None,1,1.3911283016204834,None,,,,,0,0,0,0,0,19,19,190,93.61282873153687,,,,,,,,,,,,,,,,,,,,,,,,,,,,,,,,,,,,,,,,,,,,,,,,,,,,,,,,,,,,,,,,,,,,,,,,,,,,,,,,,148.80138921058023,148.80138921058023,80.80952482286472,127.64312763077524,94.68024822398621,122.42987031017744,1.0,1.1,-714,287,-480,280,-259,259,93.59516620635986,93.5952455997467,93.59832501411438,93.61282873153687,93.76069140434265,93.76069140434265,93.76069140434265,93.76069140434265,93.76069140434265,93.76069140434265,93.76069140434265,95.00929999351501,1,1.3911283016204834,None,,,,,,,,,,,,,,,,,,10,4,2025-02-13_11h54.45.141,comp,2024.2.5,57.856618681615785,2025-02-13 12h01.15.967628 -0500,
20,20,0,filler_square,None,None,None,None,None,None,None,None,None,None,1,1.6407408714294434,None,,,,,0,0,0,0,0,20,20,208,95.02626895904541,,,,,,,,,,,,,,,,,,,,,,,,,,,,,,,,,,,,,,,,,,,,,,,,,,,,,,,,,,,,,,,,,,,,,,,,,,,,,,,,,163.02693138694445,163.02693138694445,88.45246293828927,73.4677202374123,132.76237486281752,151.55575559363993,3.0,3.1,-214,256,0,19,209,-280,95.0110354423523,95.01111459732056,95.01415014266968,95.02626895904541,95.17522048950195,95.17522048950195,95.17522048950195,95.17522048950195,95.17522048950195,95.17522048950195,95.17522048950195,96.68309354782104,1,1.6407408714294434,None,,,,,,,,,,,,,,,,,,10,4,2025-02-13_11h54.45.141,comp,2024.2.5,57.856618681615785,2025-02-13 12h01.15.967628 -0500,
21,21,0,critical,whd,60.0,2.1,lower,57.0,133.0,133.0,57.0,55.0,55.0,2,3.9763898849487305,None,,,,,0,0,0,0,0,21,21,38,96.69881391525269,,,,,,,,,,,,,,,,,,,,,,,,,,,,,,,,,,,,,,,,,,,,,,,,,,,,,,,,,,,,,,,,,,,,,,,,,,,,,,,,,57.0,133.0,133.0,57.0,55.0,55.0,2.1,2.12,-191,-272,0,-270,152,255,96.68467307090759,96.68475198745728,96.68769001960754,96.69881391525269,96.84515357017517,96.84515357017517,96.84515357017517,96.84515357017517,96.84515357017517,96.84515357017517,96.84515357017517,100.68633389472961,2,3.9763898849487305,None,,,,,,,,,,,,,,,,,,10,4,2025-02-13_11h54.45.141,comp,2024.2.5,57.856618681615785,2025-02-13 12h01.15.967628 -0500,
22,22,0,critical,whd,45.0,1.0,lower,57.0,133.0,133.0,57.0,65.0,65.0,1,1.9727683067321777,None,,,,,0,0,0,0,0,22,22,84,100.70273518562317,,,,,,,,,,,,,,,,,,,,,,,,,,,,,,,,,,,,,,,,,,,,,,,,,,,,,,,,,,,,,,,,,,,,,,,,,,,,,,,,,57.0,133.0,133.0,57.0,65.0,65.0,1.0,1.3,289,-271,480,-278,637,-268,100.6881468296051,100.68827676773071,100.69152426719666,100.70273518562317,100.84983658790588,100.84983658790588,100.84983658790588,100.84983658790588,100.84983658790588,100.84983658790588,100.84983658790588,102.68136429786682,1,1.9727683067321777,None,,,,,,,,,,,,,,,,,,10,4,2025-02-13_11h54.45.141,comp,2024.2.5,57.856618681615785,2025-02-13 12h01.15.967628 -0500,
23,23,0,filler_random,None,None,None,None,None,None,None,None,None,None,3,1.7648663520812988,None,,,,,0,0,0,0,0,23,23,134,102.70218849182129,,,,,,,,,,,,,,,,,,,,,,,,,,,,,,,,,,,,,,,,,,,,,,,,,,,,,,,,,,,,,,,,,,,,,,,,,,,,,,,,,86.71650833095293,71.34469534188169,183.387429328822,127.80158367354352,185.84198584353035,153.23425460376473,3.0,3.2,-196,-271,0,-19,237,275,102.68317604064941,102.68331861495972,102.68653059005737,102.70218849182129,102.84703278541565,102.84703278541565,102.84703278541565,102.84703278541565,102.84703278541565,102.84703278541565,102.84703278541565,104.48029136657715,3,1.7648663520812988,None,,,,,,,,,,,,,,,,,,10,4,2025-02-13_11h54.45.141,comp,2024.2.5,57.856618681615785,2025-02-13 12h01.15.967628 -0500,
24,24,0,critical,hwd,60.0,2.1,lower,133.0,57.0,57.0,133.0,55.0,55.0,1,2.475911855697632,None,,,,,0,0,0,0,0,24,24,42,104.49613308906555,,,,,,,,,,,,,,,,,,,,,,,,,,,,,,,,,,,,,,,,,,,,,,,,,,,,,,,,,,,,,,,,,,,,,,,,,,,,,,,,,133.0,57.0,57.0,133.0,55.0,55.0,2.1,2.11,-191,281,0,281,190,-290,104.4818184375763,104.48192310333252,104.48491597175598,104.49613308906555,104.64592552185059,104.64592552185059,104.64592552185059,104.64592552185059,104.64592552185059,104.64592552185059,104.64592552185059,106.98154544830322,1,2.475911855697632,None,,,,,,,,,,,,,,,,,,10,4,2025-02-13_11h54.45.141,comp,2024.2.5,57.856618681615785,2025-02-13 12h01.15.967628 -0500,
25,25,0,filler_square,None,None,None,None,None,None,None,None,None,None,2,1.1805408000946045,None,,,,,0,0,0,0,0,25,25,209,106.99859714508057,,,,,,,,,,,,,,,,,,,,,,,,,,,,,,,,,,,,,,,,,,,,,,,,,,,,,,,,,,,,,,,,,,,,,,,,,,,,,,,,,81.51101806530777,76.65748177943127,126.00674592331382,126.00674592331382,79.46378723579254,65.62390713190184,3.0,3.2,-197,-259,0,4,192,285,106.98336672782898,106.98344612121582,106.98680281639099,106.99859714508057,107.15199255943298,107.15199255943298,107.15199255943298,107.15199255943298,107.15199255943298,107.15199255943298,107.15199255943298,108.18198919296265,2,1.1805408000946045,None,,,,,,,,,,,,,,,,,,10,4,2025-02-13_11h54.45.141,comp,2024.2.5,57.856618681615785,2025-02-13 12h01.15.967628 -0500,
26,26,0,filler_random,None,None,None,None,None,None,None,None,None,None,1,2.4460225105285645,None,,,,,0,0,0,0,0,26,26,158,108.19711542129517,,,,,,,,,,,,,,,,,,,,,,,,,,,,,,,,,,,,,,,,,,,,,,,,,,,,,,,,,,,,,,,,,,,,,,,,,,,,,,,,,151.6456533649005,98.9358776325529,65.79675008820317,196.5690391563071,80.46292082860778,67.73738300329909,1.0,1.2,-244,5,0,-13,228,2,108.18399667739868,108.18409132957458,108.18757152557373,108.19711542129517,108.35384845733643,108.35384845733643,108.35384845733643,108.35384845733643,108.35384845733643,108.35384845733643,108.35384845733643,110.652902841568,1,2.4460225105285645,None,,,,,,,,,,,,,,,,,,10,4,2025-02-13_11h54.45.141,comp,2024.2.5,57.856618681615785,2025-02-13 12h01.15.967628 -0500,
27,27,0,critical,wdh,45.0,4.0,upper,125.0,200.0,117.0,117.0,200.0,125.0,1,1.6297578811645508,None,,,,,0,0,0,0,0,27,27,77,110.66949152946472,,,,,,,,,,,,,,,,,,,,,,,,,,,,,,,,,,,,,,,,,,,,,,,,,,,,,,,,,,,,,,,,,,,,,,,,,,,,,,,,,125.0,200.0,117.0,117.0,200.0,125.0,4.0,4.2,-254,0,0,-272,217,8,110.65450286865234,110.65463900566101,110.65788912773132,110.66949152946472,110.81916379928589,110.81916379928589,110.81916379928589,110.81916379928589,110.81916379928589,110.81916379928589,110.81916379928589,112.30364036560059,1,1.6297578811645508,None,,,,,,,,,,,,,,,,,,10,4,2025-02-13_11h54.45.141,comp,2024.2.5,57.856618681615785,2025-02-13 12h01.15.967628 -0500,
28,28,0,critical,dwh,45.0,2.1,upper,117.0,117.0,125.0,200.0,200.0,125.0,2,2.587472915649414,None,,,,,0,0,0,0,0,28,28,5,112.3197295665741,,,,,,,,,,,,,,,,,,,,,,,,,,,,,,,,,,,,,,,,,,,,,,,,,,,,,,,,,,,,,,,,,,,,,,,,,,,,,,,,,117.0,117.0,125.0,200.0,200.0,125.0,2.1,2.12,-254,-278,0,-289,258,286,112.30522680282593,112.3053069114685,112.30909180641174,112.3197295665741,112.46688628196716,112.46688628196716,112.46688628196716,112.46688628196716,112.46688628196716,112.46688628196716,112.46688628196716,114.90936803817749,2,2.587472915649414,None,,,,,,,,,,,,,,,,,,10,4,2025-02-13_11h54.45.141,comp,2024.2.5,57.856618681615785,2025-02-13 12h01.15.967628 -0500,
29,29,0,critical,wdh,45.0,2.1,upper,125.0,200.0,117.0,117.0,200.0,125.0,1,3.2999720573425293,None,,,,,0,0,0,0,0,29,29,33,114.9272243976593,,,,,,,,,,,,,,,,,,,,,,,,,,,,,,,,,,,,,,,,,,,,,,,,,,,,,,,,,,,,,,,,,,,,,,,,,,,,,,,,,125.0,200.0,117.0,117.0,200.0,125.0,2.1,2.11,-254,288,0,283,217,-282,114.91089081764221,114.91096878051758,114.9137601852417,114.9272243976593,115.06697225570679,115.06697225570679,115.06697225570679,115.06697225570679,115.06697225570679,115.06697225570679,115.06697225570679,118.24628257751465,1,3.2999720573425293,None,,,,,,,,,,,,,,,,,,10,4,2025-02-13_11h54.45.141,comp,2024.2.5,57.856618681615785,2025-02-13 12h01.15.967628 -0500,
30,30,0,critical,wdh,60.0,4.0,lower,57.0,133.0,55.0,55.0,133.0,57.0,1,4.827115058898926,None,,,,,0,0,0,0,0,30,30,82,118.26410412788391,,,,,,,,,,,,,,,,,,,,,,,,,,,,,,,,,,,,,,,,,,,,,,,,,,,,,,,,,,,,,,,,,,,,,,,,,,,,,,,,,57.0,133.0,55.0,55.0,133.0,57.0,4.0,4.2,-190,14,0,-259,152,-5,118.24800872802734,118.24808502197266,118.25138735771179,118.26410412788391,118.40234446525574,118.40234446525574,118.40234446525574,118.40234446525574,118.40234446525574,118.40234446525574,118.40234446525574,123.10250735282898,1,4.827115058898926,None,,,,,,,,,,,,,,,,,,10,4,2025-02-13_11h54.45.141,comp,2024.2.5,57.856618681615785,2025-02-13 12h01.15.967628 -0500,
31,31,0,critical,hdw,45.0,1.0,lower,133.0,57.0,65.0,65.0,57.0,133.0,1,1.2026958465576172,None,,,,,0,0,0,0,0,31,31,108,123.12074542045593,,,,,,,,,,,,,,,,,,,,,,,,,,,,,,,,,,,,,,,,,,,,,,,,,,,,,,,,,,,,,,,,,,,,,,,,,,,,,,,,,133.0,57.0,65.0,65.0,57.0,133.0,1.0,1.2,-157,-18,0,-10,195,-11,123.10414528846741,123.10428595542908,123.10758447647095,123.12074542045593,123.27244114875793,123.27244114875793,123.27244114875793,123.27244114875793,123.27244114875793,123.27244114875793,123.27244114875793,124.32671904563904,1,1.2026958465576172,None,,,,,,,,,,,,,,,,,,10,4,2025-02-13_11h54.45.141,comp,2024.2.5,57.856618681615785,2025-02-13 12h01.15.967628 -0500,
32,32,0,filler_random,None,None,None,None,None,None,None,None,None,None,1,4.315584659576416,None,,,,,0,0,0,0,0,32,32,166,124.34609794616699,,,,,,,,,,,,,,,,,,,,,,,,,,,,,,,,,,,,,,,,,,,,,,,,,,,,,,,,,,,,,,,,,,,,,,,,,,,,,,,,,154.04396482140913,171.19400555567273,194.9750796803482,116.6963688317145,128.6775102296262,145.68499612968228,3.0,3.1,-240,271,0,10,227,-276,124.32845449447632,124.32853317260742,124.33140182495117,124.34609794616699,124.48470616340637,124.48470616340637,124.48470616340637,124.48470616340637,124.48470616340637,124.48470616340637,124.48470616340637,128.6723973751068,1,4.315584659576416,None,,,,,,,,,,,,,,,,,,10,4,2025-02-13_11h54.45.141,comp,2024.2.5,57.856618681615785,2025-02-13 12h01.15.967628 -0500,
33,33,0,critical,dhw,45.0,3.0,lower,65.0,65.0,133.0,57.0,57.0,133.0,2,2.3078665733337402,None,,,,,0,0,0,0,0,33,33,50,128.6883454322815,,,,,,,,,,,,,,,,,,,,,,,,,,,,,,,,,,,,,,,,,,,,,,,,,,,,,,,,,,,,,,,,,,,,,,,,,,,,,,,,,65.0,65.0,133.0,57.0,57.0,133.0,3.0,3.1,-157,258,0,14,191,-288,128.67393803596497,128.6740198135376,128.67750430107117,128.6883454322815,128.83842658996582,128.83842658996582,128.83842658996582,128.83842658996582,128.83842658996582,128.83842658996582,128.83842658996582,131.00629496574402,2,2.3078665733337402,None,,,,,,,,,,,,,,,,,,10,4,2025-02-13_11h54.45.141,comp,2024.2.5,57.856618681615785,2025-02-13 12h01.15.967628 -0500,
34,34,0,filler_random,None,None,None,None,None,None,None,None,None,None,2,5.694274187088013,None,,,,,0,0,0,0,0,34,34,136,131.02121448516846,,,,,,,,,,,,,,,,,,,,,,,,,,,,,,,,,,,,,,,,,,,,,,,,,,,,,,,,,,,,,,,,,,,,,,,,,,,,,,,,,142.9046625750867,70.50964017946994,140.90347770410074,195.16605998219453,174.45381088509586,138.72539164340674,2.2,2.21,-229,-257,0,262,263,266,131.00809526443481,131.00817728042603,131.011381149292,131.02121448516846,131.17154359817505,131.17154359817505,131.17154359817505,131.17154359817505,131.17154359817505,131.17154359817505,131.17154359817505,136.72872877120972,2,5.694274187088013,None,,,,,,,,,,,,,,,,,,10,4,2025-02-13_11h54.45.141,comp,2024.2.5,57.856618681615785,2025-02-13 12h01.15.967628 -0500,
35,35,0,critical,dwh,45.0,3.0,lower,65.0,65.0,57.0,133.0,133.0,57.0,3,2.363300085067749,None,,,,,0,0,0,0,0,35,35,62,136.74465489387512,,,,,,,,,,,,,,,,,,,,,,,,,,,,,,,,,,,,,,,,,,,,,,,,,,,,,,,,,,,,,,,,,,,,,,,,,,,,,,,,,65.0,65.0,57.0,133.0,133.0,57.0,3.0,3.1,-195,261,0,-10,191,-276,136.73030018806458,136.7303807735443,136.73356556892395,136.74465489387512,136.89520978927612,136.89520978927612,136.89520978927612,136.89520978927612,136.89520978927612,136.89520978927612,136.89520978927612,139.12516355514526,3,2.363300085067749,None,,,,,,,,,,,,,,,,,,10,4,2025-02-13_11h54.45.141,comp,2024.2.5,57.856618681615785,2025-02-13 12h01.15.967628 -0500,
36,36,0,critical,dwh,60.0,2.1,upper,100.0,100.0,125.0,200.0,200.0,125.0,2,2.847580909729004,None,,,,,0,0,0,0,0,36,36,7,139.14035201072693,,,,,,,,,,,,,,,,,,,,,,,,,,,,,,,,,,,,,,,,,,,,,,,,,,,,,,,,,,,,,,,,,,,,,,,,,,,,,,,,,100.0,100.0,125.0,200.0,200.0,125.0,2.1,2.12,-246,-274,0,-283,258,284,139.12672019004822,139.12679719924927,139.1301784515381,139.14035201072693,139.2973952293396,139.2973952293396,139.2973952293396,139.2973952293396,139.2973952293396,139.2973952293396,139.2973952293396,141.9972767829895,2,2.847580909729004,None,,,,,,,,,,,,,,,,,,10,4,2025-02-13_11h54.45.141,comp,2024.2.5,57.856618681615785,2025-02-13 12h01.15.967628 -0500,
37,37,0,critical,whd,60.0,4.0,upper,125.0,200.0,200.0,125.0,100.0,100.0,1,1.2812411785125732,None,,,,,0,0,0,0,0,37,37,95,142.0181746482849,,,,,,,,,,,,,,,,,,,,,,,,,,,,,,,,,,,,,,,,,,,,,,,,,,,,,,,,,,,,,,,,,,,,,,,,,,,,,,,,,125.0,200.0,200.0,125.0,100.0,100.0,4.0,4.2,-258,16,0,-285,208,0,141.99891781806946,141.99903845787048,142.0023708343506,142.0181746482849,142.16045808792114,142.16045808792114,142.16045808792114,142.16045808792114,142.16045808792114,142.16045808792114,142.16045808792114,143.31403160095215,1,1.2812411785125732,None,,,,,,,,,,,,,,,,,,10,4,2025-02-13_11h54.45.141,comp,2024.2.5,57.856618681615785,2025-02-13 12h01.15.967628 -0500,
38,38,0,critical,hwd,60.0,3.0,lower,133.0,57.0,57.0,133.0,55.0,55.0,1,3.402155876159668,None,,,,,0,0,0,0,0,38,38,104,143.32959079742432,,,,,,,,,,,,,,,,,,,,,,,,,,,,,,,,,,,,,,,,,,,,,,,,,,,,,,,,,,,,,,,,,,,,,,,,,,,,,,,,,133.0,57.0,57.0,133.0,55.0,55.0,3.0,3.1,-191,286,0,-6,190,-289,143.31560349464417,143.315678358078,143.31849813461304,143.32959079742432,143.47341632843018,143.47341632843018,143.47341632843018,143.47341632843018,143.47341632843018,143.47341632843018,143.47341632843018,146.734201669693,1,3.402155876159668,None,,,,,,,,,,,,,,,,,,10,4,2025-02-13_11h54.45.141,comp,2024.2.5,57.856618681615785,2025-02-13 12h01.15.967628 -0500,
39,39,0,filler_square,None,None,None,None,None,None,None,None,None,None,1,1.8031017780303955,None,,,,,0,0,0,0,0,39,39,173,146.75296998023987,,,,,,,,,,,,,,,,,,,,,,,,,,,,,,,,,,,,,,,,,,,,,,,,,,,,,,,,,,,,,,,,,,,,,,,,,,,,,,,,,190.5513909631353,190.5513909631353,147.66548058169235,161.25146483945127,136.28023906822415,169.48559961983727,2.2,2.21,-272,-263,0,282,261,272,146.73594975471497,146.73602724075317,146.73925471305847,146.75296998023987,146.89867854118347,146.89867854118347,146.89867854118347,146.89867854118347,146.89867854118347,146.89867854118347,146.89867854118347,148.5584819316864,1,1.8031017780303955,None,,,,,,,,,,,,,,,,,,10,4,2025-02-13_11h54.45.141,comp,2024.2.5,57.856618681615785,2025-02-13 12h01.15.967628 -0500,
40,40,0,filler_square,None,None,None,None,None,None,None,None,None,None,2,1.1162078380584717,None,,,,,0,0,0,0,0,40,40,179,148.57618522644043,,,,,,,,,,,,,,,,,,,,,,,,,,,,,,,,,,,,,,,,,,,,,,,,,,,,,,,,,,,,,,,,,,,,,,,,,,,,,,,,,109.40975731822087,115.33269074171454,178.41843204225066,178.41843204225066,70.66983402678898,145.57287020715728,2.1,2.11,-243,265,0,269,258,-290,148.5602467060089,148.56032419204712,148.56314754486084,148.57618522644043,148.73073029518127,148.73073029518127,148.73073029518127,148.73073029518127,148.73073029518127,148.73073029518127,148.73073029518127,149.69696021080017,2,1.1162078380584717,None,,,,,,,,,,,,,,,,,,10,4,2025-02-13_11h54.45.141,comp,2024.2.5,57.856618681615785,2025-02-13 12h01.15.967628 -0500,
41,41,0,critical,dwh,60.0,1.0,upper,100.0,100.0,125.0,200.0,200.0,125.0,2,2.8906667232513428,None,,,,,0,0,0,0,0,41,41,67,149.7135214805603,,,,,,,,,,,,,,,,,,,,,,,,,,,,,,,,,,,,,,,,,,,,,,,,,,,,,,,,,,,,,,,,,,,,,,,,,,,,,,,,,100.0,100.0,125.0,200.0,200.0,125.0,1.0,1.3,234,-288,480,-253,738,-262,149.69865942001343,149.69877290725708,149.70264172554016,149.7135214805603,149.86795330047607,149.86795330047607,149.86795330047607,149.86795330047607,149.86795330047607,149.86795330047607,149.86795330047607,152.61416149139404,2,2.8906667232513428,None,,,,,,,,,,,,,,,,,,10,4,2025-02-13_11h54.45.141,comp,2024.2.5,57.856618681615785,2025-02-13 12h01.15.967628 -0500,
42,42,0,critical,hwd,45.0,2.1,lower,133.0,57.0,57.0,133.0,65.0,65.0,1,2.2298221588134766,None,,,,,0,0,0,0,0,42,42,16,152.63045978546143,,,,,,,,,,,,,,,,,,,,,,,,,,,,,,,,,,,,,,,,,,,,,,,,,,,,,,,,,,,,,,,,,,,,,,,,,,,,,,,,,133.0,57.0,57.0,133.0,65.0,65.0,2.1,2.12,-191,-254,0,-271,195,274,152.6159749031067,152.61611008644104,152.61954402923584,152.63045978546143,152.77772521972656,152.77772521972656,152.77772521972656,152.77772521972656,152.77772521972656,152.77772521972656,152.77772521972656,154.8659474849701,1,2.2298221588134766,None,,,,,,,,,,,,,,,,,,10,4,2025-02-13_11h54.45.141,comp,2024.2.5,57.856618681615785,2025-02-13 12h01.15.967628 -0500,
43,43,0,critical,dwh,45.0,3.0,upper,117.0,117.0,125.0,200.0,200.0,125.0,2,2.0493967533111572,None,,,,,0,0,0,0,0,43,43,63,154.88218355178833,,,,,,,,,,,,,,,,,,,,,,,,,,,,,,,,,,,,,,,,,,,,,,,,,,,,,,,,,,,,,,,,,,,,,,,,,,,,,,,,,117.0,117.0,125.0,200.0,200.0,125.0,3.0,3.1,-254,279,0,9,258,-256,154.86756420135498,154.86764574050903,154.87150716781616,154.88218355178833,155.03016448020935,155.03016448020935,155.03016448020935,155.03016448020935,155.03016448020935,155.03016448020935,155.03016448020935,156.94697642326355,2,2.0493967533111572,None,,,,,,,,,,,,,,,,,,10,4,2025-02-13_11h54.45.141,comp,2024.2.5,57.856618681615785,2025-02-13 12h01.15.967628 -0500,
44,44,0,filler_square,None,None,None,None,None,None,None,None,None,None,1,1.7520639896392822,None,,,,,0,0,0,0,0,44,44,195,156.96354269981384,,,,,,,,,,,,,,,,,,,,,,,,,,,,,,,,,,,,,,,,,,,,,,,,,,,,,,,,,,,,,,,,,,,,,,,,,,,,,,,,,168.82170345613463,168.82170345613463,65.84094524865333,122.88964773752811,157.9943539325394,148.83745439005605,3.0,3.1,-242,262,0,-12,232,-279,156.94897437095642,156.94905757904053,156.9523000717163,156.96354269981384,157.11633348464966,157.11633348464966,157.11633348464966,157.11633348464966,157.11633348464966,157.11633348464966,157.11633348464966,158.73129630088806,1,1.7520639896392822,None,,,,,,,,,,,,,,,,,,10,4,2025-02-13_11h54.45.141,comp,2024.2.5,57.856618681615785,2025-02-13 12h01.15.967628 -0500,
45,45,0,critical,hwd,45.0,2.1,lower,133.0,57.0,57.0,133.0,65.0,65.0,1,3.260618209838867,None,,,,,0,0,0,0,0,45,45,40,158.7511432170868,,,,,,,,,,,,,,,,,,,,,,,,,,,,,,,,,,,,,,,,,,,,,,,,,,,,,,,,,,,,,,,,,,,,,,,,,,,,,,,,,133.0,57.0,57.0,133.0,65.0,65.0,2.1,2.12,-191,-260,0,-284,195,274,158.73279237747192,158.73289227485657,158.73585844039917,158.7511432170868,158.89778780937195,158.89778780937195,158.89778780937195,158.89778780937195,158.89778780937195,158.89778780937195,158.89778780937195,162.0164177417755,1,3.260618209838867,None,,,,,,,,,,,,,,,,,,10,4,2025-02-13_11h54.45.141,comp,2024.2.5,57.856618681615785,2025-02-13 12h01.15.967628 -0500,
46,46,0,critical,whd,45.0,2.1,upper,125.0,200.0,200.0,125.0,117.0,117.0,1,5.69118857383728,None,,,,,0,0,0,0,0,46,46,37,162.0334017276764,,,,,,,,,,,,,,,,,,,,,,,,,,,,,,,,,,,,,,,,,,,,,,,,,,,,,,,,,,,,,,,,,,,,,,,,,,,,,,,,,125.0,200.0,200.0,125.0,117.0,117.0,2.1,2.11,-258,283,0,264,217,-285,162.01794028282166,162.01801657676697,162.02191519737244,162.0334017276764,162.1830186843872,162.1830186843872,162.1830186843872,162.1830186843872,162.1830186843872,162.1830186843872,162.1830186843872,167.73246788978577,1,5.69118857383728,None,,,,,,,,,,,,,,,,,,10,4,2025-02-13_11h54.45.141,comp,2024.2.5,57.856618681615785,2025-02-13 12h01.15.967628 -0500,
47,47,0,critical,dwh,45.0,4.0,lower,65.0,65.0,57.0,133.0,133.0,57.0,2,1.8541948795318604,None,,,,,0,0,0,0,0,47,47,64,167.74952507019043,,,,,,,,,,,,,,,,,,,,,,,,,,,,,,,,,,,,,,,,,,,,,,,,,,,,,,,,,,,,,,,,,,,,,,,,,,,,,,,,,65.0,65.0,57.0,133.0,133.0,57.0,4.0,4.2,-195,18,0,-286,191,-7,167.7340807914734,167.7341856956482,167.73753428459167,167.74952507019043,167.88968062400818,167.88968062400818,167.88968062400818,167.88968062400818,167.88968062400818,167.88968062400818,167.88968062400818,169.61872243881226,2,1.8541948795318604,None,,,,,,,,,,,,,,,,,,10,4,2025-02-13_11h54.45.141,comp,2024.2.5,57.856618681615785,2025-02-13 12h01.15.967628 -0500,
48,48,0,filler_square,None,None,None,None,None,None,None,None,None,None,2,2.224520444869995,None,,,,,0,0,0,0,0,48,48,188,169.63594150543213,,,,,,,,,,,,,,,,,,,,,,,,,,,,,,,,,,,,,,,,,,,,,,,,,,,,,,,,,,,,,,,,,,,,,,,,,,,,,,,,,71.61931816675745,76.30321750499236,116.30925361965853,116.30925361965853,116.2447857828729,67.37127183625104,2.1,2.12,-192,-283,0,-260,188,289,169.62064266204834,169.62072205543518,169.6247956752777,169.63594150543213,169.78958821296692,169.78958821296692,169.78958821296692,169.78958821296692,169.78958821296692,169.78958821296692,169.78958821296692,171.86818432807922,2,2.224520444869995,None,,,,,,,,,,,,,,,,,,10,4,2025-02-13_11h54.45.141,comp,2024.2.5,57.856618681615785,2025-02-13 12h01.15.967628 -0500,
49,49,0,filler_square,None,None,None,None,None,None,None,None,None,None,1,1.851048231124878,None,,,,,0,0,0,0,0,49,49,182,171.88875603675842,,,,,,,,,,,,,,,,,,,,,,,,,,,,,,,,,,,,,,,,,,,,,,,,,,,,,,,,,,,,,,,,,,,,,,,,,,,,,,,,,151.59550817671746,151.59550817671746,130.487557208552,119.07977953048035,58.322910755630325,90.19156972524311,2.2,2.21,-231,-270,0,282,201,290,171.86997175216675,171.87005186080933,171.8732304573059,171.88875603675842,172.02415704727173,172.02415704727173,172.02415704727173,172.02415704727173,172.02415704727173,172.02415704727173,172.02415704727173,173.7564263343811,1,1.851048231124878,None,,,,,,,,,,,,,,,,,,10,4,2025-02-13_11h54.45.141,comp,2024.2.5,57.856618681615785,2025-02-13 12h01.15.967628 -0500,
50,50,0,filler_square,None,None,None,None,None,None,None,None,None,None,3,1.9493277072906494,None,,,,,0,0,0,0,0,50,50,201,173.7747163772583,,,,,,,,,,,,,,,,,,,,,,,,,,,,,,,,,,,,,,,,,,,,,,,,,,,,,,,,,,,,,,,,,,,,,,,,,,,,,,,,,93.05297493872408,96.6723145206846,83.72610616914739,71.13012948819863,149.1373470290751,149.1373470290751,2.1,2.11,-180,287,0,289,206,-256,173.758385181427,173.7584662437439,173.76139307022095,173.7747163772583,173.92318677902222,173.92318677902222,173.92318677902222,173.92318677902222,173.92318677902222,173.92318677902222,173.92318677902222,175.72663831710815,3,1.9493277072906494,None,,,,,,,,,,,,,,,,,,10,4,2025-02-13_11h54.45.141,comp,2024.2.5,57.856618681615785,2025-02-13 12h01.15.967628 -0500,
51,51,0,critical,wdh,45.0,2.1,lower,57.0,133.0,65.0,65.0,133.0,57.0,3,1.8564777374267578,None,,,,,0,0,0,0,0,51,51,8,175.74737691879272,,,,,,,,,,,,,,,,,,,,,,,,,,,,,,,,,,,,,,,,,,,,,,,,,,,,,,,,,,,,,,,,,,,,,,,,,,,,,,,,,57.0,133.0,65.0,65.0,133.0,57.0,2.1,2.12,-195,-252,0,-263,157,290,175.72830772399902,175.72842264175415,175.7316861152649,175.74737691879272,175.88677287101746,175.88677287101746,175.88677287101746,175.88677287101746,175.88677287101746,175.88677287101746,175.88677287101746,177.62115478515625,3,1.8564777374267578,None,,,,,,,,,,,,,,,,,,10,4,2025-02-13_11h54.45.141,comp,2024.2.5,57.856618681615785,2025-02-13 12h01.15.967628 -0500,
52,52,0,critical,whd,45.0,1.0,upper,125.0,200.0,200.0,125.0,117.0,117.0,2,2.5772292613983154,None,,,,,0,0,0,0,0,52,52,85,177.63521075248718,,,,,,,,,,,,,,,,,,,,,,,,,,,,,,,,,,,,,,,,,,,,,,,,,,,,,,,,,,,,,,,,,,,,,,,,,,,,,,,,,125.0,200.0,200.0,125.0,117.0,117.0,1.0,1.1,-738,253,-480,285,-263,257,177.62273335456848,177.622811794281,177.6261076927185,177.63521075248718,177.77591252326965,177.77591252326965,177.77591252326965,177.77591252326965,177.77591252326965,177.77591252326965,177.77591252326965,180.2239797115326,2,2.5772292613983154,None,,,,,,,,,,,,,,,,,,10,4,2025-02-13_11h54.45.141,comp,2024.2.5,57.856618681615785,2025-02-13 12h01.15.967628 -0500,
53,53,0,filler_square,None,None,None,None,None,None,None,None,None,None,1,2.6118366718292236,None,,,,,0,0,0,0,0,53,53,206,180.24073481559753,,,,,,,,,,,,,,,,,,,,,,,,,,,,,,,,,,,,,,,,,,,,,,,,,,,,,,,,,,,,,,,,,,,,,,,,,,,,,,,,,73.85282101670546,73.85282101670546,57.3362968090523,67.4165554461409,69.33633111688778,71.91467130354104,2.1,2.12,-167,-285,0,-277,166,284,180.2262465953827,180.22632765769958,180.22990250587463,180.24073481559753,180.3791275024414,180.3791275024414,180.3791275024414,180.3791275024414,180.3791275024414,180.3791275024414,180.3791275024414,182.87157154083252,1,2.6118366718292236,None,,,,,,,,,,,,,,,,,,10,4,2025-02-13_11h54.45.141,comp,2024.2.5,57.856618681615785,2025-02-13 12h01.15.967628 -0500,
54,54,0,filler_random,None,None,None,None,None,None,None,None,None,None,2,2.004916191101074,None,,,,,0,0,0,0,0,54,54,154,182.8873176574707,,,,,,,,,,,,,,,,,,,,,,,,,,,,,,,,,,,,,,,,,,,,,,,,,,,,,,,,,,,,,,,,,,,,,,,,,,,,,,,,,70.18713903302829,107.28209467886266,175.02166689785253,85.45308643855944,126.77407100385004,60.75785811683626,3.0,3.2,-192,-285,0,-6,169,265,182.8733148574829,182.87342190742493,182.8767602443695,182.8873176574707,183.03821563720703,183.03821563720703,183.03821563720703,183.03821563720703,183.03821563720703,183.03821563720703,183.03821563720703,184.8970808982849,2,2.004916191101074,None,,,,,,,,,,,,,,,,,,10,4,2025-02-13_11h54.45.141,comp,2024.2.5,57.856618681615785,2025-02-13 12h01.15.967628 -0500,
55,55,0,filler_random,None,None,None,None,None,None,None,None,None,None,3,2.176774501800537,None,,,,,0,0,0,0,0,55,55,148,184.91505312919617,,,,,,,,,,,,,,,,,,,,,,,,,,,,,,,,,,,,,,,,,,,,,,,,,,,,,,,,,,,,,,,,,,,,,,,,,,,,,,,,,154.89711590968614,62.01371707806821,198.610856312389,111.73195226772046,121.02812441395879,192.3190630942798,4.0,4.2,-183,-5,0,-265,248,7,184.89879179000854,184.8989062309265,184.9017584323883,184.91505312919617,185.05653190612793,185.05653190612793,185.05653190612793,185.05653190612793,185.05653190612793,185.05653190612793,185.05653190612793,187.10766315460205,3,2.176774501800537,None,,,,,,,,,,,,,,,,,,10,4,2025-02-13_11h54.45.141,comp,2024.2.5,57.856618681615785,2025-02-13 12h01.15.967628 -0500,
56,56,0,critical,hdw,45.0,3.0,lower,133.0,57.0,65.0,65.0,57.0,133.0,3,3.184962749481201,None,,,,,0,0,0,0,0,56,56,110,187.12393879890442,,,,,,,,,,,,,,,,,,,,,,,,,,,,,,,,,,,,,,,,,,,,,,,,,,,,,,,,,,,,,,,,,,,,,,,,,,,,,,,,,133.0,57.0,65.0,65.0,57.0,133.0,3.0,3.1,-157,268,0,7,195,-287,187.10930180549622,187.10937786102295,187.11273002624512,187.12393879890442,187.2739658355713,187.2739658355713,187.2739658355713,187.2739658355713,187.2739658355713,187.2739658355713,187.2739658355713,190.31654453277588,3,3.184962749481201,None,,,,,,,,,,,,,,,,,,10,4,2025-02-13_11h54.45.141,comp,2024.2.5,57.856618681615785,2025-02-13 12h01.15.967628 -0500,
57,57,0,filler_square,None,None,None,None,None,None,None,None,None,None,2,1.733752727508545,None,,,,,0,0,0,0,0,57,57,187,190.33507704734802,,,,,,,,,,,,,,,,,,,,,,,,,,,,,,,,,,,,,,,,,,,,,,,,,,,,,,,,,,,,,,,,,,,,,,,,,,,,,,,,,132.85733714130197,109.20366984383733,134.2526577824105,134.2526577824105,61.32341941241966,133.365731431035,3.0,3.1,-218,286,0,14,230,-271,190.31845235824585,190.31857442855835,190.32189798355103,190.33507704734802,190.48177671432495,190.48177671432495,190.48177671432495,190.48177671432495,190.48177671432495,190.48177671432495,190.48177671432495,192.0770401954651,2,1.733752727508545,None,,,,,,,,,,,,,,,,,,10,4,2025-02-13_11h54.45.141,comp,2024.2.5,57.856618681615785,2025-02-13 12h01.15.967628 -0500,
58,58,0,filler_square,None,None,None,None,None,None,None,None,None,None,2,5.319628477096558,None,,,,,0,0,0,0,0,58,58,194,192.09270977973938,,,,,,,,,,,,,,,,,,,,,,,,,,,,,,,,,,,,,,,,,,,,,,,,,,,,,,,,,,,,,,,,,,,,,,,,,,,,,,,,,63.204921049329215,65.55635073421996,68.33583000160722,68.33583000160722,64.44673376332904,59.77949931294081,2.2,2.21,-163,-270,0,279,160,290,192.07893347740173,192.0790183544159,192.08214497566223,192.09270977973938,192.24275183677673,192.24275183677673,192.24275183677673,192.24275183677673,192.24275183677673,192.24275183677673,192.24275183677673,197.42701816558838,2,5.319628477096558,None,,,,,,,,,,,,,,,,,,10,4,2025-02-13_11h54.45.141,comp,2024.2.5,57.856618681615785,2025-02-13 12h01.15.967628 -0500,
59,59,0,filler_random,None,None,None,None,None,None,None,None,None,None,1,8.130226373672485,None,,,,,0,0,0,0,0,59,59,162,197.44316840171814,,,,,,,,,,,,,,,,,,,,,,,,,,,,,,,,,,,,,,,,,,,,,,,,,,,,,,,,,,,,,,,,,,,,,,,,,,,,,,,,,180.9741121091921,163.04903495963637,75.84974519651071,164.7039915315975,174.5702206230731,164.4182440745871,4.0,4.1,-260,-267,0,-13,261,-254,197.42888283729553,197.4290246963501,197.43230414390564,197.44316840171814,197.59337329864502,197.59337329864502,197.59337329864502,197.59337329864502,197.59337329864502,197.59337329864502,197.59337329864502,205.57867336273193,1,8.130226373672485,None,,,,,,,,,,,,,,,,,,10,4,2025-02-13_11h54.45.141,comp,2024.2.5,57.856618681615785,2025-02-13 12h01.15.967628 -0500,
60,60,0,filler_random,None,None,None,None,None,None,None,None,None,None,2,1.8417236804962158,None,,,,,0,0,0,0,0,60,60,140,205.59444761276245,,,,,,,,,,,,,,,,,,,,,,,,,,,,,,,,,,,,,,,,,,,,,,,,,,,,,,,,,,,,,,,,,,,,,,,,,,,,,,,,,118.21219178087497,90.66062677332553,133.64113858731776,163.52508091439609,134.66457452149263,71.2869593423754,4.0,4.1,-223,-259,0,1,213,-287,205.58040690422058,205.58048391342163,205.58343076705933,205.59444761276245,205.73696398735046,205.73696398735046,205.73696398735046,205.73696398735046,205.73696398735046,205.73696398735046,205.73696398735046,207.45669555664062,2,1.8417236804962158,None,,,,,,,,,,,,,,,,,,10,4,2025-02-13_11h54.45.141,comp,2024.2.5,57.856618681615785,2025-02-13 12h01.15.967628 -0500,
61,61,0,filler_square,None,None,None,None,None,None,None,None,None,None,1,5.799993515014648,None,,,,,0,0,0,0,0,61,61,189,207.47670102119446,,,,,,,,,,,,,,,,,,,,,,,,,,,,,,,,,,,,,,,,,,,,,,,,,,,,,,,,,,,,,,,,,,,,,,,,,,,,,,,,,118.13363880973462,118.13363880973462,77.9811431609557,105.7035072536799,76.98065833466802,108.97069187375662,2.1,2.11,-208,256,0,285,203,-269,207.45851826667786,207.4585964679718,207.46149015426636,207.47670102119446,207.61453652381897,207.61453652381897,207.61453652381897,207.61453652381897,207.61453652381897,207.61453652381897,207.61453652381897,213.28751182556152,1,5.799993515014648,None,,,,,,,,,,,,,,,,,,10,4,2025-02-13_11h54.45.141,comp,2024.2.5,57.856618681615785,2025-02-13 12h01.15.967628 -0500,
62,62,0,filler_square,None,None,None,None,None,None,None,None,None,None,2,1.7922697067260742,None,,,,,0,0,0,0,0,62,62,197,213.30796813964844,,,,,,,,,,,,,,,,,,,,,,,,,,,,,,,,,,,,,,,,,,,,,,,,,,,,,,,,,,,,,,,,,,,,,,,,,,,,,,,,,60.34228438383661,69.4456012610828,74.85342060862266,74.85342060862266,67.1504003999635,57.07014160602296,2.1,2.12,-168,-287,0,-277,162,255,213.28933000564575,213.28941130638123,213.29230117797852,213.30796813964844,213.44696927070618,213.44696927070618,213.44696927070618,213.44696927070618,213.44696927070618,213.44696927070618,213.44696927070618,215.11559462547302,2,1.7922697067260742,None,,,,,,,,,,,,,,,,,,10,4,2025-02-13_11h54.45.141,comp,2024.2.5,57.856618681615785,2025-02-13 12h01.15.967628 -0500,
63,63,0,filler_random,None,None,None,None,None,None,None,None,None,None,2,1.1359589099884033,None,,,,,0,0,0,0,0,63,63,131,215.13225507736206,,,,,,,,,,,,,,,,,,,,,,,,,,,,,,,,,,,,,,,,,,,,,,,,,,,,,,,,,,,,,,,,,,,,,,,,,,,,,,,,,92.65256801663956,151.2549826791323,169.29053511878914,170.11690554137056,70.67332753800562,135.5639543006863,1.0,1.2,-257,-13,0,2,249,18,215.11740970611572,215.11750769615173,215.12075400352478,215.13225507736206,215.28579950332642,215.28579950332642,215.28579950332642,215.28579950332642,215.28579950332642,215.28579950332642,215.28579950332642,216.278742313385,2,1.1359589099884033,None,,,,,,,,,,,,,,,,,,10,4,2025-02-13_11h54.45.141,comp,2024.2.5,57.856618681615785,2025-02-13 12h01.15.967628 -0500,
64,64,0,critical,dwh,60.0,1.0,lower,55.0,55.0,57.0,133.0,133.0,57.0,2,2.8283915519714355,None,,,,,0,0,0,0,0,64,64,66,216.2972218990326,,,,,,,,,,,,,,,,,,,,,,,,,,,,,,,,,,,,,,,,,,,,,,,,,,,,,,,,,,,,,,,,,,,,,,,,,,,,,,,,,55.0,55.0,57.0,133.0,133.0,57.0,1.0,1.1,-670,281,-480,275,-289,278,216.28034830093384,216.28042817115784,216.28331756591797,216.2972218990326,216.43685007095337,216.43685007095337,216.43685007095337,216.43685007095337,216.43685007095337,216.43685007095337,216.43685007095337,219.13129925727844,2,2.8283915519714355,None,,,,,,,,,,,,,,,,,,10,4,2025-02-13_11h54.45.141,comp,2024.2.5,57.856618681615785,2025-02-13 12h01.15.967628 -0500,
65,65,0,filler_random,None,None,None,None,None,None,None,None,None,None,1,3.111973762512207,None,,,,,0,0,0,0,0,65,65,132,219.14830589294434,,,,,,,,,,,,,,,,,,,,,,,,,,,,,,,,,,,,,,,,,,,,,,,,,,,,,,,,,,,,,,,,,,,,,,,,,,,,,,,,,183.9317987608162,161.4060591549129,174.32958680254748,158.83467784100702,167.91654637554998,128.01258571672128,2.1,2.11,-256,274,0,253,239,-259,219.13300800323486,219.1330864429474,219.13597202301025,219.14830589294434,219.28569078445435,219.28569078445435,219.28569078445435,219.28569078445435,219.28569078445435,219.28569078445435,219.28569078445435,222.2806179523468,1,3.111973762512207,None,,,,,,,,,,,,,,,,,,10,4,2025-02-13_11h54.45.141,comp,2024.2.5,57.856618681615785,2025-02-13 12h01.15.967628 -0500,
66,66,0,filler_random,None,None,None,None,None,None,None,None,None,None,1,1.8391954898834229,None,,,,,0,0,0,0,0,66,66,159,222.3010995388031,,,,,,,,,,,,,,,,,,,,,,,,,,,,,,,,,,,,,,,,,,,,,,,,,,,,,,,,,,,,,,,,,,,,,,,,,,,,,,,,,150.68857634751924,149.73361493825942,197.4576558007754,71.23892132294301,133.55980210661994,119.75793031486526,4.0,4.2,-206,-9,0,-279,191,-11,222.282377243042,222.2825129032135,222.28578996658325,222.3010995388031,222.43582844734192,222.43582844734192,222.43582844734192,222.43582844734192,222.43582844734192,222.43582844734192,222.43582844734192,224.15184926986694,1,1.8391954898834229,None,,,,,,,,,,,,,,,,,,10,4,2025-02-13_11h54.45.141,comp,2024.2.5,57.856618681615785,2025-02-13 12h01.15.967628 -0500,
67,67,0,filler_random,None,None,None,None,None,None,None,None,None,None,2,2.380518674850464,None,,,,,0,0,0,0,0,67,67,143,224.1683967113495,,,,,,,,,,,,,,,,,,,,,,,,,,,,,,,,,,,,,,,,,,,,,,,,,,,,,,,,,,,,,,,,,,,,,,,,,,,,,,,,,96.29735718576825,143.30822928397504,185.7116877146767,110.802774050527,71.74001909728624,153.26298998274586,2.2,2.21,-223,-255,0,272,228,258,224.1536464691162,224.15378189086914,224.15711998939514,224.1683967113495,224.3242437839508,224.3242437839508,224.3242437839508,224.3242437839508,224.3242437839508,224.3242437839508,224.3242437839508,226.55370903015137,2,2.380518674850464,None,,,,,,,,,,,,,,,,,,10,4,2025-02-13_11h54.45.141,comp,2024.2.5,57.856618681615785,2025-02-13 12h01.15.967628 -0500,
68,68,0,critical,hdw,45.0,4.0,lower,133.0,57.0,65.0,65.0,57.0,133.0,3,6.034531831741333,None,,,,,0,0,0,0,0,68,68,112,226.5697557926178,,,,,,,,,,,,,,,,,,,,,,,,,,,,,,,,,,,,,,,,,,,,,,,,,,,,,,,,,,,,,,,,,,,,,,,,,,,,,,,,,133.0,57.0,65.0,65.0,57.0,133.0,4.0,4.1,-157,-274,0,2,195,-264,226.55538725852966,226.55546736717224,226.55893564224243,226.5697557926178,226.72226476669312,226.72226476669312,226.72226476669312,226.72226476669312,226.72226476669312,226.72226476669312,226.72226476669312,232.6213617324829,3,6.034531831741333,None,,,,,,,,,,,,,,,,,,10,4,2025-02-13_11h54.45.141,comp,2024.2.5,57.856618681615785,2025-02-13 12h01.15.967628 -0500,
69,69,0,filler_random,None,None,None,None,None,None,None,None,None,None,3,4.287280559539795,None,,,,,0,0,0,0,0,69,69,138,232.63788986206055,,,,,,,,,,,,,,,,,,,,,,,,,,,,,,,,,,,,,,,,,,,,,,,,,,,,,,,,,,,,,,,,,,,,,,,,,,,,,,,,,166.93760784314438,123.43431726220012,123.4467398392961,183.50260614338947,165.8697701243234,146.54733755630855,3.0,3.1,-249,263,0,-10,261,-286,232.62317037582397,232.62330555915833,232.6266577243805,232.63788986206055,232.7889380455017,232.7889380455017,232.7889380455017,232.7889380455017,232.7889380455017,232.7889380455017,232.7889380455017,236.9310748577118,3,4.287280559539795,None,,,,,,,,,,,,,,,,,,10,4,2025-02-13_11h54.45.141,comp,2024.2.5,57.856618681615785,2025-02-13 12h01.15.967628 -0500,
70,70,0,critical,whd,60.0,1.0,lower,57.0,133.0,133.0,57.0,55.0,55.0,2,2.8743278980255127,None,,,,,0,0,0,0,0,70,70,90,236.94706010818481,,,,,,,,,,,,,,,,,,,,,,,,,,,,,,,,,,,,,,,,,,,,,,,,,,,,,,,,,,,,,,,,,,,,,,,,,,,,,,,,,57.0,133.0,133.0,57.0,55.0,55.0,1.0,1.3,289,-257,480,-273,632,-262,236.9326686859131,236.93275713920593,236.9360682964325,236.94706010818481,237.09243988990784,237.09243988990784,237.09243988990784,237.09243988990784,237.09243988990784,237.09243988990784,237.09243988990784,239.82673120498657,2,2.8743278980255127,None,,,,,,,,,,,,,,,,,,10,4,2025-02-13_11h54.45.141,comp,2024.2.5,57.856618681615785,2025-02-13 12h01.15.967628 -0500,
71,71,0,critical,hdw,60.0,4.0,lower,133.0,57.0,55.0,55.0,57.0,133.0,1,2.3776423931121826,None,,,,,0,0,0,0,0,71,71,118,239.84325194358826,,,,,,,,,,,,,,,,,,,,,,,,,,,,,,,,,,,,,,,,,,,,,,,,,,,,,,,,,,,,,,,,,,,,,,,,,,,,,,,,,133.0,57.0,55.0,55.0,57.0,133.0,4.0,4.2,-152,5,0,-282,190,-18,239.82835793495178,239.82844829559326,239.83199453353882,239.84325194358826,239.99111938476562,239.99111938476562,239.99111938476562,239.99111938476562,239.99111938476562,239.99111938476562,239.99111938476562,242.22636556625366,1,2.3776423931121826,None,,,,,,,,,,,,,,,,,,10,4,2025-02-13_11h54.45.141,comp,2024.2.5,57.856618681615785,2025-02-13 12h01.15.967628 -0500,
72,72,0,critical,hwd,60.0,2.1,lower,133.0,57.0,57.0,133.0,55.0,55.0,1,2.5379505157470703,None,,,,,0,0,0,0,0,72,72,18,242.24257683753967,,,,,,,,,,,,,,,,,,,,,,,,,,,,,,,,,,,,,,,,,,,,,,,,,,,,,,,,,,,,,,,,,,,,,,,,,,,,,,,,,133.0,57.0,57.0,133.0,55.0,55.0,2.1,2.11,-191,270,0,289,190,-288,242.22805643081665,242.22820854187012,242.23172163963318,242.24257683753967,242.38953590393066,242.38953590393066,242.38953590393066,242.38953590393066,242.38953590393066,242.38953590393066,242.38953590393066,244.79770183563232,1,2.5379505157470703,None,,,,,,,,,,,,,,,,,,10,4,2025-02-13_11h54.45.141,comp,2024.2.5,57.856618681615785,2025-02-13 12h01.15.967628 -0500,
73,73,0,critical,dwh,60.0,4.0,upper,100.0,100.0,125.0,200.0,200.0,125.0,2,2.955087423324585,None,,,,,0,0,0,0,0,73,73,71,244.81770730018616,,,,,,,,,,,,,,,,,,,,,,,,,,,,,,,,,,,,,,,,,,,,,,,,,,,,,,,,,,,,,,,,,,,,,,,,,,,,,,,,,100.0,100.0,125.0,200.0,200.0,125.0,4.0,4.2,-246,13,0,-284,258,-18,244.7993128299713,244.7993893623352,244.80246019363403,244.81770730018616,244.95871543884277,244.95871543884277,244.95871543884277,244.95871543884277,244.95871543884277,244.95871543884277,244.95871543884277,247.7781240940094,2,2.955087423324585,None,,,,,,,,,,,,,,,,,,10,4,2025-02-13_11h54.45.141,comp,2024.2.5,57.856618681615785,2025-02-13 12h01.15.967628 -0500,
74,74,0,critical,hdw,45.0,2.1,lower,133.0,57.0,65.0,65.0,57.0,133.0,1,4.115189552307129,None,,,,,0,0,0,0,0,74,74,20,247.7938904762268,,,,,,,,,,,,,,,,,,,,,,,,,,,,,,,,,,,,,,,,,,,,,,,,,,,,,,,,,,,,,,,,,,,,,,,,,,,,,,,,,133.0,57.0,65.0,65.0,57.0,133.0,2.1,2.11,-157,288,0,271,195,-288,247.77961826324463,247.7796971797943,247.78317260742188,247.7938904762268,247.94714736938477,247.94714736938477,247.94714736938477,247.94714736938477,247.94714736938477,247.94714736938477,247.94714736938477,251.93119263648987,1,4.115189552307129,None,,,,,,,,,,,,,,,,,,10,4,2025-02-13_11h54.45.141,comp,2024.2.5,57.856618681615785,2025-02-13 12h01.15.967628 -0500,
75,75,0,filler_random,None,None,None,None,None,None,None,None,None,None,3,1.77500319480896,None,,,,,0,0,0,0,0,75,75,150,251.9504587650299,,,,,,,,,,,,,,,,,,,,,,,,,,,,,,,,,,,,,,,,,,,,,,,,,,,,,,,,,,,,,,,,,,,,,,,,,,,,,,,,,108.30058970848685,110.56958262386708,64.18164086721099,83.58024551855456,117.60280449427222,185.67327067413098,3.0,3.1,-193,277,0,-13,231,-266,251.933660030365,251.933744430542,251.93692541122437,251.9504587650299,252.09516406059265,252.09516406059265,252.09516406059265,252.09516406059265,252.09516406059265,252.09516406059265,252.09516406059265,253.73025393486023,3,1.77500319480896,None,,,,,,,,,,,,,,,,,,10,4,2025-02-13_11h54.45.141,comp,2024.2.5,57.856618681615785,2025-02-13 12h01.15.967628 -0500,
76,76,0,critical,whd,45.0,3.0,lower,57.0,133.0,133.0,57.0,65.0,65.0,2,4.394901752471924,None,,,,,0,0,0,0,0,76,76,86,253.74649858474731,,,,,,,,,,,,,,,,,,,,,,,,,,,,,,,,,,,,,,,,,,,,,,,,,,,,,,,,,,,,,,,,,,,,,,,,,,,,,,,,,57.0,133.0,133.0,57.0,65.0,65.0,3.0,3.1,-191,250,0,15,157,-272,253.7319929599762,253.73213577270508,253.73555159568787,253.74649858474731,253.89432501792908,253.89432501792908,253.89432501792908,253.89432501792908,253.89432501792908,253.89432501792908,253.89432501792908,258.15128231048584,2,4.394901752471924,None,,,,,,,,,,,,,,,,,,10,4,2025-02-13_11h54.45.141,comp,2024.2.5,57.856618681615785,2025-02-13 12h01.15.967628 -0500,
77,77,0,filler_random,None,None,None,None,None,None,None,None,None,None,3,2.44124174118042,None,,,,,0,0,0,0,0,77,77,168,258.1716206073761,,,,,,,,,,,,,,,,,,,,,,,,,,,,,,,,,,,,,,,,,,,,,,,,,,,,,,,,,,,,,,,,,,,,,,,,,,,,,,,,,145.44643326099853,80.51359683131483,103.25882366189441,157.174176359736,194.13032927059345,148.1413318046834,3.0,3.1,-215,276,0,-14,249,-279,258.1531035900116,258.1531834602356,258.15607213974,258.1716206073761,258.3141930103302,258.3141930103302,258.3141930103302,258.3141930103302,258.3141930103302,258.3141930103302,258.3141930103302,260.63422679901123,3,2.44124174118042,None,,,,,,,,,,,,,,,,,,10,4,2025-02-13_11h54.45.141,comp,2024.2.5,57.856618681615785,2025-02-13 12h01.15.967628 -0500,
78,78,0,critical,dhw,45.0,2.1,upper,117.0,117.0,200.0,125.0,125.0,200.0,2,2.2036893367767334,None,,,,,0,0,0,0,0,78,78,25,260.6518270969391,,,,,,,,,,,,,,,,,,,,,,,,,,,,,,,,,,,,,,,,,,,,,,,,,,,,,,,,,,,,,,,,,,,,,,,,,,,,,,,,,117.0,117.0,200.0,125.0,125.0,200.0,2.1,2.12,-217,-263,0,-257,258,285,260.6358449459076,260.63599491119385,260.63933968544006,260.6518270969391,260.7978208065033,260.7978208065033,260.7978208065033,260.7978208065033,260.7978208065033,260.7978208065033,260.7978208065033,262.86604499816895,2,2.2036893367767334,None,,,,,,,,,,,,,,,,,,10,4,2025-02-13_11h54.45.141,comp,2024.2.5,57.856618681615785,2025-02-13 12h01.15.967628 -0500,
79,79,0,critical,dwh,60.0,3.0,lower,55.0,55.0,57.0,133.0,133.0,57.0,2,4.130079507827759,None,,,,,0,0,0,0,0,79,79,68,262.88258028030396,,,,,,,,,,,,,,,,,,,,,,,,,,,,,,,,,,,,,,,,,,,,,,,,,,,,,,,,,,,,,,,,,,,,,,,,,,,,,,,,,55.0,55.0,57.0,133.0,133.0,57.0,3.0,3.1,-190,263,0,16,191,-252,262.8676543235779,262.86773705482483,262.8718247413635,262.88258028030396,263.0323793888092,263.0323793888092,263.0323793888092,263.0323793888092,263.0323793888092,263.0323793888092,263.0323793888092,267.01701283454895,2,4.130079507827759,None,,,,,,,,,,,,,,,,,,10,4,2025-02-13_11h54.45.141,comp,2024.2.5,57.856618681615785,2025-02-13 12h01.15.967628 -0500,
80,80,0,filler_random,None,None,None,None,None,None,None,None,None,None,1,2.7409374713897705,None,,,,,0,0,0,0,0,80,80,165,267.0333933830261,,,,,,,,,,,,,,,,,,,,,,,,,,,,,,,,,,,,,,,,,,,,,,,,,,,,,,,,,,,,,,,,,,,,,,,,,,,,,,,,,58.54358844282092,195.96822486174716,103.01252317343003,73.42456916441978,97.18553806574026,122.54547270259289,4.0,4.1,-231,-286,0,16,194,-281,267.0190010070801,267.01909708976746,267.0225524902344,267.0333933830261,267.184693813324,267.184693813324,267.184693813324,267.184693813324,267.184693813324,267.184693813324,267.184693813324,269.77783846855164,1,2.7409374713897705,None,,,,,,,,,,,,,,,,,,10,4,2025-02-13_11h54.45.141,comp,2024.2.5,57.856618681615785,2025-02-13 12h01.15.967628 -0500,
81,81,0,critical,dwh,45.0,2.1,lower,65.0,65.0,57.0,133.0,133.0,57.0,3,4.09893536567688,None,,,,,0,0,0,0,0,81,81,4,269.7940368652344,,,,,,,,,,,,,,,,,,,,,,,,,,,,,,,,,,,,,,,,,,,,,,,,,,,,,,,,,,,,,,,,,,,,,,,,,,,,,,,,,65.0,65.0,57.0,133.0,133.0,57.0,2.1,2.11,-195,273,0,255,191,-270,269.7793583869934,269.7794373035431,269.7823164463043,269.7940368652344,269.9346888065338,269.9346888065338,269.9346888065338,269.9346888065338,269.9346888065338,269.9346888065338,269.9346888065338,273.9045262336731,3,4.09893536567688,None,,,,,,,,,,,,,,,,,,10,4,2025-02-13_11h54.45.141,comp,2024.2.5,57.856618681615785,2025-02-13 12h01.15.967628 -0500,
82,82,0,critical,hwd,45.0,4.0,upper,200.0,125.0,125.0,200.0,117.0,117.0,1,2.92409348487854,None,,,,,0,0,0,0,0,82,82,101,273.921236038208,,,,,,,,,,,,,,,,,,,,,,,,,,,,,,,,,,,,,,,,,,,,,,,,,,,,,,,,,,,,,,,,,,,,,,,,,,,,,,,,,200.0,125.0,125.0,200.0,117.0,117.0,4.0,4.1,-258,-251,0,-5,254,-278,273.906222820282,273.90630197525024,273.91025829315186,273.921236038208,274.0703821182251,274.0703821182251,274.0703821182251,274.0703821182251,274.0703821182251,274.0703821182251,274.0703821182251,276.85573530197144,1,2.92409348487854,None,,,,,,,,,,,,,,,,,,10,4,2025-02-13_11h54.45.141,comp,2024.2.5,57.856618681615785,2025-02-13 12h01.15.967628 -0500,
83,83,0,filler_random,None,None,None,None,None,None,None,None,None,None,2,1.291292667388916,None,,,,,0,0,0,0,0,83,83,142,276.8742706775665,,,,,,,,,,,,,,,,,,,,,,,,,,,,,,,,,,,,,,,,,,,,,,,,,,,,,,,,,,,,,,,,,,,,,,,,,,,,,,,,,96.1328681920828,59.26392242574789,193.48039196692224,133.4918813806396,64.30020041640692,114.3853386956189,4.0,4.2,-192,6,0,-283,220,1,276.85755348205566,276.8576352596283,276.86066126823425,276.8742706775665,277.01984882354736,277.01984882354736,277.01984882354736,277.01984882354736,277.01984882354736,277.01984882354736,277.01984882354736,278.17272758483887,2,1.291292667388916,None,,,,,,,,,,,,,,,,,,10,4,2025-02-13_11h54.45.141,comp,2024.2.5,57.856618681615785,2025-02-13 12h01.15.967628 -0500,
84,84,0,filler_square,None,None,None,None,None,None,None,None,None,None,3,2.6655588150024414,None,,,,,0,0,0,0,0,84,84,204,278.1885507106781,,,,,,,,,,,,,,,,,,,,,,,,,,,,,,,,,,,,,,,,,,,,,,,,,,,,,,,,,,,,,,,,,,,,,,,,,,,,,,,,,69.87426231074961,58.33386519014757,59.03897394748735,64.5020362960556,75.10624934207067,75.10624934207067,2.2,2.22,-157,289,0,-254,166,-287,278.1746337413788,278.17471504211426,278.17789101600647,278.1885507106781,278.3359978199005,278.3359978199005,278.3359978199005,278.3359978199005,278.3359978199005,278.3359978199005,278.3359978199005,280.8601334095001,3,2.6655588150024414,None,,,,,,,,,,,,,,,,,,10,4,2025-02-13_11h54.45.141,comp,2024.2.5,57.856618681615785,2025-02-13 12h01.15.967628 -0500,
85,85,0,filler_random,None,None,None,None,None,None,None,None,None,None,2,2.096411943435669,None,,,,,0,0,0,0,0,85,85,163,280.87647342681885,,,,,,,,,,,,,,,,,,,,,,,,,,,,,,,,,,,,,,,,,,,,,,,,,,,,,,,,,,,,,,,,,,,,,,,,,,,,,,,,,66.76772364884815,184.00823470886849,129.1673441267199,172.08556337906336,113.21692199347223,142.59133027512456,2.2,2.21,-274,-252,0,268,253,269,280.86192417144775,280.8620057106018,280.86489057540894,280.87647342681885,281.0199661254883,281.0199661254883,281.0199661254883,281.0199661254883,281.0199661254883,281.0199661254883,281.0199661254883,282.9879105091095,2,2.096411943435669,None,,,,,,,,,,,,,,,,,,10,4,2025-02-13_11h54.45.141,comp,2024.2.5,57.856618681615785,2025-02-13 12h01.15.967628 -0500,
86,86,0,critical,dhw,60.0,2.1,lower,55.0,55.0,133.0,57.0,57.0,133.0,2,2.049832582473755,None,,,,,0,0,0,0,0,86,86,2,283.0039381980896,,,,,,,,,,,,,,,,,,,,,,,,,,,,,,,,,,,,,,,,,,,,,,,,,,,,,,,,,,,,,,,,,,,,,,,,,,,,,,,,,55.0,55.0,133.0,57.0,57.0,133.0,2.1,2.11,-152,282,0,254,191,-285,282.9894378185272,282.98951506614685,282.9927258491516,283.0039381980896,283.14351892471313,283.14351892471313,283.14351892471313,283.14351892471313,283.14351892471313,283.14351892471313,283.14351892471313,285.05904054641724,2,2.049832582473755,None,,,,,,,,,,,,,,,,,,10,4,2025-02-13_11h54.45.141,comp,2024.2.5,57.856618681615785,2025-02-13 12h01.15.967628 -0500,
87,87,0,critical,dhw,60.0,4.0,upper,100.0,100.0,200.0,125.0,125.0,200.0,2,2.3071517944335938,None,,,,,0,0,0,0,0,87,87,59,285.0759048461914,,,,,,,,,,,,,,,,,,,,,,,,,,,,,,,,,,,,,,,,,,,,,,,,,,,,,,,,,,,,,,,,,,,,,,,,,,,,,,,,,100.0,100.0,200.0,125.0,125.0,200.0,4.0,4.2,-208,-6,0,-288,258,12,285.06089067459106,285.06104826927185,285.0643308162689,285.0759048461914,285.227991104126,285.227991104126,285.227991104126,285.227991104126,285.227991104126,285.227991104126,285.227991104126,287.3889877796173,2,2.3071517944335938,None,,,,,,,,,,,,,,,,,,10,4,2025-02-13_11h54.45.141,comp,2024.2.5,57.856618681615785,2025-02-13 12h01.15.967628 -0500,
88,88,0,filler_square,None,None,None,None,None,None,None,None,None,None,1,1.0229439735412598,None,,,,,0,0,0,0,0,88,88,205,287.4059889316559,,,,,,,,,,,,,,,,,,,,,,,,,,,,,,,,,,,,,,,,,,,,,,,,,,,,,,,,,,,,,,,,,,,,,,,,,,,,,,,,,159.1018011261796,159.1018011261796,138.8233277080231,149.49882689305417,112.47057670925643,72.47497526988867,4.0,4.2,-250,18,0,-283,207,7,287.39096546173096,287.391047000885,287.3943827152252,287.4059889316559,287.55697441101074,287.55697441101074,287.55697441101074,287.55697441101074,287.55697441101074,287.55697441101074,287.55697441101074,288.4388315677643,1,1.0229439735412598,None,,,,,,,,,,,,,,,,,,10,4,2025-02-13_11h54.45.141,comp,2024.2.5,57.856618681615785,2025-02-13 12h01.15.967628 -0500,
89,89,0,filler_random,None,None,None,None,None,None,None,None,None,None,2,1.8458662033081055,None,,,,,0,0,0,0,0,89,89,164,288.4553191661835,,,,,,,,,,,,,,,,,,,,,,,,,,,,,,,,,,,,,,,,,,,,,,,,,,,,,,,,,,,,,,,,,,,,,,,,,,,,,,,,,122.68874927918388,123.84376626466931,96.8419580644845,197.4380537424837,111.062764613567,65.76359284302421,3.0,3.1,-257,257,0,5,228,-257,288.4405484199524,288.44062876701355,288.4437093734741,288.4553191661835,288.59525632858276,288.59525632858276,288.59525632858276,288.59525632858276,288.59525632858276,288.59525632858276,288.59525632858276,290.3144690990448,2,1.8458662033081055,None,,,,,,,,,,,,,,,,,,10,4,2025-02-13_11h54.45.141,comp,2024.2.5,57.856618681615785,2025-02-13 12h01.15.967628 -0500,
90,90,0,critical,wdh,45.0,1.0,lower,57.0,133.0,65.0,65.0,133.0,57.0,3,3.0985360145568848,None,,,,,0,0,0,0,0,90,90,72,290.33062767982483,,,,,,,,,,,,,,,,,,,,,,,,,,,,,,,,,,,,,,,,,,,,,,,,,,,,,,,,,,,,,,,,,,,,,,,,,,,,,,,,,57.0,133.0,65.0,65.0,133.0,57.0,1.0,1.3,285,-273,480,-274,637,-275,290.3160021305084,290.3160808086395,290.3189888000488,290.33062767982483,290.4774799346924,290.4774799346924,290.4774799346924,290.4774799346924,290.4774799346924,290.4774799346924,290.4774799346924,293.44557452201843,3,3.0985360145568848,None,,,,,,,,,,,,,,,,,,10,4,2025-02-13_11h54.45.141,comp,2024.2.5,57.856618681615785,2025-02-13 12h01.15.967628 -0500,
91,91,0,catch,None,None,None,None,None,None,None,None,None,None,2,1.0155093669891357,None,,,,,0,0,0,0,0,91,91,129,293.46144437789917,,,,,,,,,,,,,,,,,,,,,,,,,,,,,,,,,,,,,,,,,,,,,,,,,,,,,,,,,,,,,,,,,,,,,,,,,,,,,,,,,130,60,172,153,79,111,2.2,2.22,-202,278,0,-261,228,-264,293.4477348327637,293.44781470298767,293.451210975647,293.46144437789917,293.6084909439087,293.6084909439087,293.6084909439087,293.6084909439087,293.6084909439087,293.6084909439087,293.6084909439087,294.4914643764496,2,1.0155093669891357,None,,,,,,,,,,,,,,,,,,10,4,2025-02-13_11h54.45.141,comp,2024.2.5,57.856618681615785,2025-02-13 12h01.15.967628 -0500,
92,92,0,critical,dhw,60.0,2.1,upper,100.0,100.0,200.0,125.0,125.0,200.0,3,3.9922685623168945,None,,,,,0,0,0,0,0,92,92,3,294.5087454319,,,,,,,,,,,,,,,,,,,,,,,,,,,,,,,,,,,,,,,,,,,,,,,,,,,,,,,,,,,,,,,,,,,,,,,,,,,,,,,,,100.0,100.0,200.0,125.0,125.0,200.0,2.1,2.12,-208,-276,0,-275,258,280,294.4930000305176,294.493079662323,294.496328830719,294.5087454319,294.6657500267029,294.6657500267029,294.6657500267029,294.6657500267029,294.6657500267029,294.6657500267029,294.6657500267029,298.5127556324005,3,3.9922685623168945,None,,,,,,,,,,,,,,,,,,10,4,2025-02-13_11h54.45.141,comp,2024.2.5,57.856618681615785,2025-02-13 12h01.15.967628 -0500,
93,93,0,critical,whd,45.0,2.1,lower,57.0,133.0,133.0,57.0,65.0,65.0,2,3.1688616275787354,None,,,,,0,0,0,0,0,93,93,36,298.5335876941681,,,,,,,,,,,,,,,,,,,,,,,,,,,,,,,,,,,,,,,,,,,,,,,,,,,,,,,,,,,,,,,,,,,,,,,,,,,,,,,,,57.0,133.0,133.0,57.0,65.0,65.0,2.1,2.12,-191,-288,0,-280,157,260,298.5146610736847,298.51475834846497,298.5179989337921,298.5335876941681,298.67685532569885,298.67685532569885,298.67685532569885,298.67685532569885,298.67685532569885,298.67685532569885,298.67685532569885,301.71298909187317,2,3.1688616275787354,None,,,,,,,,,,,,,,,,,,10,4,2025-02-13_11h54.45.141,comp,2024.2.5,57.856618681615785,2025-02-13 12h01.15.967628 -0500,
94,94,0,critical,whd,45.0,2.1,lower,57.0,133.0,133.0,57.0,65.0,65.0,2,1.4517409801483154,None,,,,,0,0,0,0,0,94,94,12,301.7293939590454,,,,,,,,,,,,,,,,,,,,,,,,,,,,,,,,,,,,,,,,,,,,,,,,,,,,,,,,,,,,,,,,,,,,,,,,,,,,,,,,,57.0,133.0,133.0,57.0,65.0,65.0,2.1,2.12,-191,-284,0,-277,157,277,301.714684009552,301.71476578712463,301.7186453342438,301.7293939590454,301.87766885757446,301.87766885757446,301.87766885757446,301.87766885757446,301.87766885757446,301.87766885757446,301.87766885757446,303.19562292099,2,1.4517409801483154,None,,,,,,,,,,,,,,,,,,10,4,2025-02-13_11h54.45.141,comp,2024.2.5,57.856618681615785,2025-02-13 12h01.15.967628 -0500,
95,95,0,filler_random,None,None,None,None,None,None,None,None,None,None,2,6.057503700256348,None,,,,,0,0,0,0,0,95,95,161,303.21164083480835,,,,,,,,,,,,,,,,,,,,,,,,,,,,,,,,,,,,,,,,,,,,,,,,,,,,,,,,,,,,,,,,,,,,,,,,,,,,,,,,,80.24570372045636,195.28500946975038,130.96832539077974,93.80723363272745,114.42970331282258,117.3381190876932,2.1,2.12,-241,-286,0,-285,202,256,303.1974730491638,303.19755268096924,303.20108437538147,303.21164083480835,303.3591978549957,303.3591978549957,303.3591978549957,303.3591978549957,303.3591978549957,303.3591978549957,303.3591978549957,309.2797603607178,2,6.057503700256348,None,,,,,,,,,,,,,,,,,,10,4,2025-02-13_11h54.45.141,comp,2024.2.5,57.856618681615785,2025-02-13 12h01.15.967628 -0500,
96,96,0,critical,dhw,45.0,1.0,upper,117.0,117.0,200.0,125.0,125.0,200.0,3,5.739057302474976,None,,,,,0,0,0,0,0,96,96,49,309.2981188297272,,,,,,,,,,,,,,,,,,,,,,,,,,,,,,,,,,,,,,,,,,,,,,,,,,,,,,,,,,,,,,,,,,,,,,,,,,,,,,,,,117.0,117.0,200.0,125.0,125.0,200.0,1.0,1.1,-697,270,-480,254,-222,257,309.2814497947693,309.2815866470337,309.2849659919739,309.2981188297272,309.44759249687195,309.44759249687195,309.44759249687195,309.44759249687195,309.44759249687195,309.44759249687195,309.44759249687195,315.05018734931946,3,5.739057302474976,None,,,,,,,,,,,,,,,,,,10,4,2025-02-13_11h54.45.141,comp,2024.2.5,57.856618681615785,2025-02-13 12h01.15.967628 -0500,
97,97,0,critical,hdw,45.0,2.1,upper,200.0,125.0,117.0,117.0,125.0,200.0,1,4.831408500671387,None,,,,,0,0,0,0,0,97,97,45,315.07082891464233,,,,,,,,,,,,,,,,,,,,,,,,,,,,,,,,,,,,,,,,,,,,,,,,,,,,,,,,,,,,,,,,,,,,,,,,,,,,,,,,,200.0,125.0,117.0,117.0,125.0,200.0,2.1,2.11,-217,272,0,260,254,-251,315.0516917705536,315.05177211761475,315.05513405799866,315.07082891464233,315.21623373031616,315.21623373031616,315.21623373031616,315.21623373031616,315.21623373031616,315.21623373031616,315.21623373031616,319.9079477787018,1,4.831408500671387,None,,,,,,,,,,,,,,,,,,10,4,2025-02-13_11h54.45.141,comp,2024.2.5,57.856618681615785,2025-02-13 12h01.15.967628 -0500,
98,98,0,critical,wdh,60.0,3.0,lower,57.0,133.0,55.0,55.0,133.0,57.0,3,1.8246314525604248,None,,,,,0,0,0,0,0,98,98,80,319.9248070716858,,,,,,,,,,,,,,,,,,,,,,,,,,,,,,,,,,,,,,,,,,,,,,,,,,,,,,,,,,,,,,,,,,,,,,,,,,,,,,,,,57.0,133.0,55.0,55.0,133.0,57.0,3.0,3.2,-190,-273,0,11,152,269,319.90950775146484,319.9095883369446,319.912499666214,319.9248070716858,320.06570053100586,320.06570053100586,320.06570053100586,320.06570053100586,320.06570053100586,320.06570053100586,320.06570053100586,321.752658367157,3,1.8246314525604248,None,,,,,,,,,,,,,,,,,,10,4,2025-02-13_11h54.45.141,comp,2024.2.5,57.856618681615785,2025-02-13 12h01.15.967628 -0500,
99,99,0,catch,None,None,None,None,None,None,None,None,None,None,2,1.6335515975952148,None,,,,,0,0,0,0,0,99,99,122,321.7716917991638,,,,,,,,,,,,,,,,,,,,,,,,,,,,,,,,,,,,,,,,,,,,,,,,,,,,,,,,,,,,,,,,,,,,,,,,,,,,,,,,,68,122,164,161,62,128,4.0,4.1,-238,-261,0,-12,240,-262,321.75492095947266,321.7550051212311,321.75872325897217,321.7716917991638,321.91683197021484,321.91683197021484,321.91683197021484,321.91683197021484,321.91683197021484,321.91683197021484,321.91683197021484,323.4222195148468,2,1.6335515975952148,None,,,,,,,,,,,,,,,,,,10,4,2025-02-13_11h54.45.141,comp,2024.2.5,57.856618681615785,2025-02-13 12h01.15.967628 -0500,
100,100,0,critical,wdh,60.0,2.1,upper,125.0,200.0,100.0,100.0,200.0,125.0,3,3.530776023864746,None,,,,,0,0,0,0,0,100,100,35,323.44261169433594,,,,,,,,,,,,,,,,,,,,,,,,,,,,,,,,,,,,,,,,,,,,,,,,,,,,,,,,,,,,,,,,,,,,,,,,,,,,,,,,,125.0,200.0,100.0,100.0,200.0,125.0,2.1,2.12,-246,-274,0,-277,208,256,323.4237816333771,323.42385935783386,323.42728567123413,323.44261169433594,323.58442759513855,323.58442759513855,323.58442759513855,323.58442759513855,323.58442759513855,323.58442759513855,323.58442759513855,326.984783411026,3,3.530776023864746,None,,,,,,,,,,,,,,,,,,10,4,2025-02-13_11h54.45.141,comp,2024.2.5,57.856618681615785,2025-02-13 12h01.15.967628 -0500,
101,101,0,filler_random,None,None,None,None,None,None,None,None,None,None,2,2.6200082302093506,None,,,,,0,0,0,0,0,101,101,155,327.00145864486694,,,,,,,,,,,,,,,,,,,,,,,,,,,,,,,,,,,,,,,,,,,,,,,,,,,,,,,,,,,,,,,,,,,,,,,,,,,,,,,,,113.57699391989892,96.81961248710596,148.43331135020856,85.06930095278716,60.619214006922654,155.2283581319678,3.0,3.2,-187,-254,0,9,216,264,326.9864971637726,326.9865756034851,326.98977851867676,327.00145864486694,327.14912700653076,327.14912700653076,327.14912700653076,327.14912700653076,327.14912700653076,327.14912700653076,327.14912700653076,329.6403913497925,2,2.6200082302093506,None,,,,,,,,,,,,,,,,,,10,4,2025-02-13_11h54.45.141,comp,2024.2.5,57.856618681615785,2025-02-13 12h01.15.967628 -0500,
102,102,0,critical,wdh,60.0,1.0,lower,57.0,133.0,55.0,55.0,133.0,57.0,3,4.597536325454712,None,,,,,0,0,0,0,0,102,102,78,329.6561231613159,,,,,,,,,,,,,,,,,,,,,,,,,,,,,,,,,,,,,,,,,,,,,,,,,,,,,,,,,,,,,,,,,,,,,,,,,,,,,,,,,57.0,133.0,55.0,55.0,133.0,57.0,1.0,1.3,290,-259,480,-275,632,-258,329.6419794559479,329.64206171035767,329.64589619636536,329.6561231613159,329.8032159805298,329.8032159805298,329.8032159805298,329.8032159805298,329.8032159805298,329.8032159805298,329.8032159805298,334.2556834220886,3,4.597536325454712,None,,,,,,,,,,,,,,,,,,10,4,2025-02-13_11h54.45.141,comp,2024.2.5,57.856618681615785,2025-02-13 12h01.15.967628 -0500,
103,103,0,critical,wdh,60.0,2.1,lower,57.0,133.0,55.0,55.0,133.0,57.0,3,1.2615408897399902,None,,,,,0,0,0,0,0,103,103,10,334.2722806930542,,,,,,,,,,,,,,,,,,,,,,,,,,,,,,,,,,,,,,,,,,,,,,,,,,,,,,,,,,,,,,,,,,,,,,,,,,,,,,,,,57.0,133.0,55.0,55.0,133.0,57.0,2.1,2.11,-190,264,0,252,152,-280,334.2573757171631,334.2574543952942,334.2610340118408,334.2722806930542,334.42532324790955,334.42532324790955,334.42532324790955,334.42532324790955,334.42532324790955,334.42532324790955,334.42532324790955,335.539181470871,3,1.2615408897399902,None,,,,,,,,,,,,,,,,,,10,4,2025-02-13_11h54.45.141,comp,2024.2.5,57.856618681615785,2025-02-13 12h01.15.967628 -0500,
104,104,0,critical,dhw,45.0,2.1,upper,117.0,117.0,200.0,125.0,125.0,200.0,2,2.7224111557006836,None,,,,,0,0,0,0,0,104,104,1,335.56360030174255,,,,,,,,,,,,,,,,,,,,,,,,,,,,,,,,,,,,,,,,,,,,,,,,,,,,,,,,,,,,,,,,,,,,,,,,,,,,,,,,,117.0,117.0,200.0,125.0,125.0,200.0,2.1,2.12,-217,-255,0,-276,258,251,335.54071378707886,335.54079389572144,335.5438566207886,335.56360030174255,335.70543146133423,335.70543146133423,335.70543146133423,335.70543146133423,335.70543146133423,335.70543146133423,335.70543146133423,338.2882134914398,2,2.7224111557006836,None,,,,,,,,,,,,,,,,,,10,4,2025-02-13_11h54.45.141,comp,2024.2.5,57.856618681615785,2025-02-13 12h01.15.967628 -0500,
105,105,0,critical,hdw,45.0,2.1,lower,133.0,57.0,65.0,65.0,57.0,133.0,1,2.1724298000335693,None,,,,,0,0,0,0,0,105,105,44,338.3050434589386,,,,,,,,,,,,,,,,,,,,,,,,,,,,,,,,,,,,,,,,,,,,,,,,,,,,,,,,,,,,,,,,,,,,,,,,,,,,,,,,,133.0,57.0,65.0,65.0,57.0,133.0,2.1,2.12,-157,-254,0,-252,195,274,338.28982877731323,338.28994154930115,338.29328894615173,338.3050434589386,338.45628786087036,338.45628786087036,338.45628786087036,338.45628786087036,338.45628786087036,338.45628786087036,338.45628786087036,340.4891827106476,1,2.1724298000335693,None,,,,,,,,,,,,,,,,,,10,4,2025-02-13_11h54.45.141,comp,2024.2.5,57.856618681615785,2025-02-13 12h01.15.967628 -0500,
106,106,0,filler_random,None,None,None,None,None,None,None,None,None,None,1,3.1806082725524902,None,,,,,0,0,0,0,0,106,106,133,340.5054476261139,,,,,,,,,,,,,,,,,,,,,,,,,,,,,,,,,,,,,,,,,,,,,,,,,,,,,,,,,,,,,,,,,,,,,,,,,,,,,,,,,171.2009009957066,100.6010440317533,181.526374292934,59.07480023605104,80.71614303982717,124.29972053558396,4.0,4.1,-176,-276,0,-20,188,-267,340.49090933799744,340.49099040031433,340.4940948486328,340.5054476261139,340.6621513366699,340.6621513366699,340.6621513366699,340.6621513366699,340.6621513366699,340.6621513366699,340.6621513366699,343.69129371643066,1,3.1806082725524902,None,,,,,,,,,,,,,,,,,,10,4,2025-02-13_11h54.45.141,comp,2024.2.5,57.856618681615785,2025-02-13 12h01.15.967628 -0500,
107,107,0,critical,dhw,60.0,1.0,upper,100.0,100.0,200.0,125.0,125.0,200.0,2,6.722712516784668,None,,,,,0,0,0,0,0,107,107,55,343.7070457935333,,,,,,,,,,,,,,,,,,,,,,,,,,,,,,,,,,,,,,,,,,,,,,,,,,,,,,,,,,,,,,,,,,,,,,,,,,,,,,,,,100.0,100.0,200.0,125.0,125.0,200.0,1.0,1.2,-208,-6,0,-8,258,-14,343.69279646873474,343.6929044723511,343.69642543792725,343.7070457935333,343.85607743263245,343.85607743263245,343.85607743263245,343.85607743263245,343.85607743263245,343.85607743263245,343.85607743263245,350.44362926483154,2,6.722712516784668,None,,,,,,,,,,,,,,,,,,10,4,2025-02-13_11h54.45.141,comp,2024.2.5,57.856618681615785,2025-02-13 12h01.15.967628 -0500,
108,108,0,filler_random,None,None,None,None,None,None,None,None,None,None,3,1.8663196563720703,None,,,,,0,0,0,0,0,108,108,157,350.45938181877136,,,,,,,,,,,,,,,,,,,,,,,,,,,,,,,,,,,,,,,,,,,,,,,,,,,,,,,,,,,,,,,,,,,,,,,,,,,,,,,,,95.76087617842546,65.13399499222402,161.39812176583803,149.9086938934817,163.6506384415669,196.2384906923323,4.0,4.2,-204,2,0,-252,269,4,350.44539284706116,350.44547176361084,350.44883489608765,350.45938181877136,350.6086299419403,350.6086299419403,350.6086299419403,350.6086299419403,350.6086299419403,350.6086299419403,350.6086299419403,352.32848167419434,3,1.8663196563720703,None,,,,,,,,,,,,,,,,,,10,4,2025-02-13_11h54.45.141,comp,2024.2.5,57.856618681615785,2025-02-13 12h01.15.967628 -0500,
109,109,0,critical,whd,60.0,3.0,upper,125.0,200.0,200.0,125.0,100.0,100.0,1,2.708453893661499,None,,,,,0,0,0,0,0,109,109,93,352.3459360599518,,,,,,,,,,,,,,,,,,,,,,,,,,,,,,,,,,,,,,,,,,,,,,,,,,,,,,,,,,,,,,,,,,,,,,,,,,,,,,,,,125.0,200.0,200.0,125.0,100.0,100.0,3.0,3.2,-258,-265,0,-6,208,267,352.32999634742737,352.33007311820984,352.33301401138306,352.3459360599518,352.49078488349915,352.49078488349915,352.49078488349915,352.49078488349915,352.49078488349915,352.49078488349915,352.49078488349915,355.06181597709656,1,2.708453893661499,None,,,,,,,,,,,,,,,,,,10,4,2025-02-13_11h54.45.141,comp,2024.2.5,57.856618681615785,2025-02-13 12h01.15.967628 -0500,
110,110,0,filler_random,None,None,None,None,None,None,None,None,None,None,1,1.455183506011963,None,,,,,0,0,0,0,0,110,110,156,355.0785553455353,,,,,,,,,,,,,,,,,,,,,,,,,,,,,,,,,,,,,,,,,,,,,,,,,,,,,,,,,,,,,,,,,,,,,,,,,,,,,,,,,104.16217002533507,159.90518664361957,90.45810418423645,105.13986187743114,101.82717038975407,79.614210560769,2.1,2.11,-229,280,0,274,188,-267,355.0638847351074,355.0639863014221,355.0677182674408,355.0785553455353,355.23122453689575,355.23122453689575,355.23122453689575,355.23122453689575,355.23122453689575,355.23122453689575,355.23122453689575,356.5507605075836,1,1.455183506011963,None,,,,,,,,,,,,,,,,,,10,4,2025-02-13_11h54.45.141,comp,2024.2.5,57.856618681615785,2025-02-13 12h01.15.967628 -0500,
111,111,0,critical,hdw,60.0,2.1,upper,200.0,125.0,100.0,100.0,125.0,200.0,3,3.3114848136901855,None,,,,,0,0,0,0,0,111,111,47,356.56618785858154,,,,,,,,,,,,,,,,,,,,,,,,,,,,,,,,,,,,,,,,,,,,,,,,,,,,,,,,,,,,,,,,,,,,,,,,,,,,,,,,,200.0,125.0,100.0,100.0,125.0,200.0,2.1,2.11,-208,257,0,266,246,-276,356.55231833457947,356.55239748954773,356.55531072616577,356.56618785858154,356.71248745918274,356.71248745918274,356.71248745918274,356.71248745918274,356.71248745918274,356.71248745918274,356.71248745918274,359.8950798511505,3,3.3114848136901855,None,,,,,,,,,,,,,,,,,,10,4,2025-02-13_11h54.45.141,comp,2024.2.5,57.856618681615785,2025-02-13 12h01.15.967628 -0500,
112,112,0,critical,hdw,60.0,3.0,upper,200.0,125.0,100.0,100.0,125.0,200.0,3,1.814448356628418,None,,,,,0,0,0,0,0,112,112,117,359.91160011291504,,,,,,,,,,,,,,,,,,,,,,,,,,,,,,,,,,,,,,,,,,,,,,,,,,,,,,,,,,,,,,,,,,,,,,,,,,,,,,,,,200.0,125.0,100.0,100.0,125.0,200.0,3.0,3.2,-208,-270,0,-8,246,270,359.8966054916382,359.89668464660645,359.8998808860779,359.91160011291504,360.06168937683105,360.06168937683105,360.06168937683105,360.06168937683105,360.06168937683105,360.06168937683105,360.06168937683105,361.7308223247528,3,1.814448356628418,None,,,,,,,,,,,,,,,,,,10,4,2025-02-13_11h54.45.141,comp,2024.2.5,57.856618681615785,2025-02-13 12h01.15.967628 -0500,
113,113,0,critical,hwd,60.0,1.0,upper,200.0,125.0,125.0,200.0,100.0,100.0,2,2.4432356357574463,None,,,,,0,0,0,0,0,113,113,103,361.74722933769226,,,,,,,,,,,,,,,,,,,,,,,,,,,,,,,,,,,,,,,,,,,,,,,,,,,,,,,,,,,,,,,,,,,,,,,,,,,,,,,,,200.0,125.0,125.0,200.0,100.0,100.0,1.0,1.2,-258,4,0,-6,246,-14,361.73237347602844,361.73245573043823,361.73660612106323,361.74722933769226,361.894508600235,361.894508600235,361.894508600235,361.894508600235,361.894508600235,361.894508600235,361.894508600235,364.2007269859314,2,2.4432356357574463,None,,,,,,,,,,,,,,,,,,10,4,2025-02-13_11h54.45.141,comp,2024.2.5,57.856618681615785,2025-02-13 12h01.15.967628 -0500,
114,114,0,filler_square,None,None,None,None,None,None,None,None,None,None,2,1.3002314567565918,None,,,,,0,0,0,0,0,114,114,185,364.2175314426422,,,,,,,,,,,,,,,,,,,,,,,,,,,,,,,,,,,,,,,,,,,,,,,,,,,,,,,,,,,,,,,,,,,,,,,,,,,,,,,,,108.51760228889549,78.25517943341433,197.35946755891288,197.35946755891288,71.66557643794839,186.469432271141,1.0,1.3,246,-260,480,-253,768,-282,364.20289373397827,364.2029838562012,364.20683312416077,364.2175314426422,364.3646504878998,364.3646504878998,364.3646504878998,364.3646504878998,364.3646504878998,364.3646504878998,364.3646504878998,365.53270959854126,2,1.3002314567565918,None,,,,,,,,,,,,,,,,,,10,4,2025-02-13_11h54.45.141,comp,2024.2.5,57.856618681615785,2025-02-13 12h01.15.967628 -0500,
115,115,0,filler_random,None,None,None,None,None,None,None,None,None,None,2,1.1774044036865234,None,,,,,0,0,0,0,0,115,115,153,365.5489900112152,,,,,,,,,,,,,,,,,,,,,,,,,,,,,,,,,,,,,,,,,,,,,,,,,,,,,,,,,,,,,,,,,,,,,,,,,,,,,,,,,125.26473883871014,129.19898875315755,144.48275681039644,168.029999543079,96.83868545031916,125.93738970588919,2.2,2.22,-245,260,0,-279,243,-284,365.534503698349,365.53463530540466,365.5386734008789,365.5489900112152,365.698548078537,365.698548078537,365.698548078537,365.698548078537,365.698548078537,365.698548078537,365.698548078537,366.7311611175537,2,1.1774044036865234,None,,,,,,,,,,,,,,,,,,10,4,2025-02-13_11h54.45.141,comp,2024.2.5,57.856618681615785,2025-02-13 12h01.15.967628 -0500,
116,116,0,filler_square,None,None,None,None,None,None,None,None,None,None,2,1.803123950958252,None,,,,,0,0,0,0,0,116,116,186,366.74746799468994,,,,,,,,,,,,,,,,,,,,,,,,,,,,,,,,,,,,,,,,,,,,,,,,,,,,,,,,,,,,,,,,,,,,,,,,,,,,,,,,,76.41858588275706,121.4321816865115,123.74989659132015,123.74989659132015,89.96897562995167,90.347402442992,2.1,2.11,-219,280,0,260,203,-285,366.7328951358795,366.732976436615,366.73593854904175,366.74746799468994,366.9039855003357,366.9039855003357,366.9039855003357,366.9039855003357,366.9039855003357,366.9039855003357,366.9039855003357,368.5566465854645,2,1.803123950958252,None,,,,,,,,,,,,,,,,,,10,4,2025-02-13_11h54.45.141,comp,2024.2.5,57.856618681615785,2025-02-13 12h01.15.967628 -0500,
117,117,0,critical,wdh,45.0,2.1,lower,57.0,133.0,65.0,65.0,133.0,57.0,1,3.0508792400360107,None,,,,,0,0,0,0,0,117,117,32,368.5727586746216,,,,,,,,,,,,,,,,,,,,,,,,,,,,,,,,,,,,,,,,,,,,,,,,,,,,,,,,,,,,,,,,,,,,,,,,,,,,,,,,,57.0,133.0,65.0,65.0,133.0,57.0,2.1,2.11,-195,259,0,252,157,-265,368.5583155155182,368.55839681625366,368.5616521835327,368.5727586746216,368.7146155834198,368.7146155834198,368.7146155834198,368.7146155834198,368.7146155834198,368.7146155834198,368.7146155834198,371.63497519493103,1,3.0508792400360107,None,,,,,,,,,,,,,,,,,,10,4,2025-02-13_11h54.45.141,comp,2024.2.5,57.856618681615785,2025-02-13 12h01.15.967628 -0500,
118,118,0,critical,dwh,60.0,3.0,upper,100.0,100.0,125.0,200.0,200.0,125.0,3,4.067212104797363,None,,,,,0,0,0,0,0,118,118,69,371.6505398750305,,,,,,,,,,,,,,,,,,,,,,,,,,,,,,,,,,,,,,,,,,,,,,,,,,,,,,,,,,,,,,,,,,,,,,,,,,,,,,,,,100.0,100.0,125.0,200.0,200.0,125.0,3.0,3.1,-246,289,0,7,258,-268,371.6366078853607,371.6366903781891,371.63984727859497,371.6505398750305,371.8033757209778,371.8033757209778,371.8033757209778,371.8033757209778,371.8033757209778,371.8033757209778,371.8033757209778,375.7347960472107,3,4.067212104797363,None,,,,,,,,,,,,,,,,,,10,4,2025-02-13_11h54.45.141,comp,2024.2.5,57.856618681615785,2025-02-13 12h01.15.967628 -0500,
119,119,0,critical,dhw,45.0,4.0,lower,65.0,65.0,133.0,57.0,57.0,133.0,2,3.199587106704712,None,,,,,0,0,0,0,0,119,119,52,375.7504370212555,,,,,,,,,,,,,,,,,,,,,,,,,,,,,,,,,,,,,,,,,,,,,,,,,,,,,,,,,,,,,,,,,,,,,,,,,,,,,,,,,65.0,65.0,133.0,57.0,57.0,133.0,4.0,4.1,-157,-262,0,4,191,-257,375.73648595809937,375.7366180419922,375.7400686740875,375.7504370212555,375.90075635910034,375.90075635910034,375.90075635910034,375.90075635910034,375.90075635910034,375.90075635910034,375.90075635910034,378.968759059906,2,3.199587106704712,None,,,,,,,,,,,,,,,,,,10,4,2025-02-13_11h54.45.141,comp,2024.2.5,57.856618681615785,2025-02-13 12h01.15.967628 -0500,
120,120,0,critical,dwh,60.0,2.1,lower,55.0,55.0,57.0,133.0,133.0,57.0,2,5.817974805831909,None,,,,,0,0,0,0,0,120,120,30,378.9879493713379,,,,,,,,,,,,,,,,,,,,,,,,,,,,,,,,,,,,,,,,,,,,,,,,,,,,,,,,,,,,,,,,,,,,,,,,,,,,,,,,,55.0,55.0,57.0,133.0,133.0,57.0,2.1,2.11,-190,280,0,271,191,-263,378.9703834056854,378.9704623222351,378.9737958908081,378.9879493713379,379.1356711387634,379.1356711387634,379.1356711387634,379.1356711387634,379.1356711387634,379.1356711387634,379.1356711387634,384.8206436634064,2,5.817974805831909,None,,,,,,,,,,,,,,,,,,10,4,2025-02-13_11h54.45.141,comp,2024.2.5,57.856618681615785,2025-02-13 12h01.15.967628 -0500,
121,121,0,critical,hdw,45.0,2.1,upper,200.0,125.0,117.0,117.0,125.0,200.0,1,2.102220058441162,None,,,,,0,0,0,0,0,121,121,21,384.83997893333435,,,,,,,,,,,,,,,,,,,,,,,,,,,,,,,,,,,,,,,,,,,,,,,,,,,,,,,,,,,,,,,,,,,,,,,,,,,,,,,,,200.0,125.0,117.0,117.0,125.0,200.0,2.1,2.11,-217,288,0,257,254,-251,384.8221662044525,384.8222448825836,384.82530879974365,384.83997893333435,384.9881727695465,384.9881727695465,384.9881727695465,384.9881727695465,384.9881727695465,384.9881727695465,384.9881727695465,386.9584221839905,1,2.102220058441162,None,,,,,,,,,,,,,,,,,,10,4,2025-02-13_11h54.45.141,comp,2024.2.5,57.856618681615785,2025-02-13 12h01.15.967628 -0500,
122,122,0,filler_square,None,None,None,None,None,None,None,None,None,None,1,1.1750717163085938,None,,,,,0,0,0,0,0,122,122,199,386.9753544330597,,,,,,,,,,,,,,,,,,,,,,,,,,,,,,,,,,,,,,,,,,,,,,,,,,,,,,,,,,,,,,,,,,,,,,,,,,,,,,,,,187.81429383977505,187.81429383977505,126.00370605250136,99.1889232772468,65.64899575828672,157.80285269756786,2.1,2.11,-240,287,0,287,224,-256,386.9604296684265,386.9605121612549,386.9638385772705,386.9753544330597,387.1219971179962,387.1219971179962,387.1219971179962,387.1219971179962,387.1219971179962,387.1219971179962,387.1219971179962,388.1547725200653,1,1.1750717163085938,None,,,,,,,,,,,,,,,,,,10,4,2025-02-13_11h54.45.141,comp,2024.2.5,57.856618681615785,2025-02-13 12h01.15.967628 -0500,
123,123,0,filler_random,None,None,None,None,None,None,None,None,None,None,3,1.8466813564300537,None,,,,,0,0,0,0,0,123,123,141,388.17522978782654,,,,,,,,,,,,,,,,,,,,,,,,,,,,,,,,,,,,,,,,,,,,,,,,,,,,,,,,,,,,,,,,,,,,,,,,,,,,,,,,,116.6070976777204,73.81358445750931,77.80543556714505,75.3448817200015,70.75455169596916,173.58421409362893,1.0,1.1,-651,251,-480,282,-260,252,388.15667748451233,388.15676951408386,388.16012239456177,388.17522978782654,388.3223662376404,388.3223662376404,388.3223662376404,388.3223662376404,388.3223662376404,388.3223662376404,388.3223662376404,390.0423312187195,3,1.8466813564300537,None,,,,,,,,,,,,,,,,,,10,4,2025-02-13_11h54.45.141,comp,2024.2.5,57.856618681615785,2025-02-13 12h01.15.967628 -0500,
124,124,0,filler_random,None,None,None,None,None,None,None,None,None,None,2,1.5849370956420898,None,,,,,0,0,0,0,0,124,124,145,390.0612254142761,,,,,,,,,,,,,,,,,,,,,,,,,,,,,,,,,,,,,,,,,,,,,,,,,,,,,,,,,,,,,,,,,,,,,,,,,,,,,,,,,104.99614593131002,78.1826088997036,147.60235148763763,188.27908924699193,83.1839842167134,99.81062306215458,3.0,3.2,-229,-284,0,-6,240,276,390.0443949699402,390.0444872379303,390.0478529930115,390.0612254142761,390.20643496513367,390.20643496513367,390.20643496513367,390.20643496513367,390.20643496513367,390.20643496513367,390.20643496513367,391.6561326980591,2,1.5849370956420898,None,,,,,,,,,,,,,,,,,,10,4,2025-02-13_11h54.45.141,comp,2024.2.5,57.856618681615785,2025-02-13 12h01.15.967628 -0500,
125,125,0,critical,dwh,45.0,1.0,lower,65.0,65.0,57.0,133.0,133.0,57.0,3,1.9861347675323486,None,,,,,0,0,0,0,0,125,125,60,391.6761817932129,,,,,,,,,,,,,,,,,,,,,,,,,,,,,,,,,,,,,,,,,,,,,,,,,,,,,,,,,,,,,,,,,,,,,,,,,,,,,,,,,65.0,65.0,57.0,133.0,133.0,57.0,1.0,1.2,-195,3,0,-18,191,6,391.65772461891174,391.6578052043915,391.6613070964813,391.6761817932129,391.8232283592224,391.8232283592224,391.8232283592224,391.8232283592224,391.8232283592224,391.8232283592224,391.8232283592224,393.6816840171814,3,1.9861347675323486,None,,,,,,,,,,,,,,,,,,10,4,2025-02-13_11h54.45.141,comp,2024.2.5,57.856618681615785,2025-02-13 12h01.15.967628 -0500,
126,126,0,critical,hdw,60.0,3.0,lower,133.0,57.0,55.0,55.0,57.0,133.0,1,1.6561172008514404,None,,,,,0,0,0,0,0,126,126,116,393.7018370628357,,,,,,,,,,,,,,,,,,,,,,,,,,,,,,,,,,,,,,,,,,,,,,,,,,,,,,,,,,,,,,,,,,,,,,,,,,,,,,,,,133.0,57.0,55.0,55.0,57.0,133.0,3.0,3.2,-152,-255,0,-1,190,266,393.6832711696625,393.68334674835205,393.68663811683655,393.7018370628357,393.841117143631,393.841117143631,393.841117143631,393.841117143631,393.841117143631,393.841117143631,393.841117143631,395.37444019317627,1,1.6561172008514404,None,,,,,,,,,,,,,,,,,,10,4,2025-02-13_11h54.45.141,comp,2024.2.5,57.856618681615785,2025-02-13 12h01.15.967628 -0500,
127,127,0,filler_square,None,None,None,None,None,None,None,None,None,None,1,1.456895351409912,None,,,,,0,0,0,0,0,127,127,200,395.3900628089905,,,,,,,,,,,,,,,,,,,,,,,,,,,,,,,,,,,,,,,,,,,,,,,,,,,,,,,,,,,,,,,,,,,,,,,,,,,,,,,,,108.20476001771814,108.20476001771814,82.33294581787057,100.26257468734275,74.0944975018354,59.11373403621021,3.0,3.1,-200,270,0,9,176,-272,395.37625432014465,395.37632989883423,395.37975335121155,395.3900628089905,395.54513025283813,395.54513025283813,395.54513025283813,395.54513025283813,395.54513025283813,395.54513025283813,395.54513025283813,396.8582844734192,1,1.456895351409912,None,,,,,,,,,,,,,,,,,,10,4,2025-02-13_11h54.45.141,comp,2024.2.5,57.856618681615785,2025-02-13 12h01.15.967628 -0500,
128,128,0,filler_random,None,None,None,None,None,None,None,None,None,None,2,1.475161075592041,None,,,,,0,0,0,0,0,128,128,139,396.87559723854065,,,,,,,,,,,,,,,,,,,,,,,,,,,,,,,,,,,,,,,,,,,,,,,,,,,,,,,,,,,,,,,,,,,,,,,,,,,,,,,,,193.78490283945115,114.0333017144939,198.68618400558347,122.40321454408783,90.27292020255744,113.05526211796922,2.1,2.12,-214,-258,0,-257,214,252,396.8601064682007,396.86024928092957,396.86442947387695,396.87559723854065,397.03255438804626,397.03255438804626,397.03255438804626,397.03255438804626,397.03255438804626,397.03255438804626,397.03255438804626,398.3557839393616,2,1.475161075592041,None,,,,,,,,,,,,,,,,,,10,4,2025-02-13_11h54.45.141,comp,2024.2.5,57.856618681615785,2025-02-13 12h01.15.967628 -0500,
129,129,0,critical,hdw,45.0,3.0,upper,200.0,125.0,117.0,117.0,125.0,200.0,3,2.234520196914673,None,,,,,0,0,0,0,0,129,129,111,398.37240719795227,,,,,,,,,,,,,,,,,,,,,,,,,,,,,,,,,,,,,,,,,,,,,,,,,,,,,,,,,,,,,,,,,,,,,,,,,,,,,,,,,200.0,125.0,117.0,117.0,125.0,200.0,3.0,3.1,-217,268,0,-12,254,-252,398.3574094772339,398.3575005531311,398.36075234413147,398.37240719795227,398.5092611312866,398.5092611312866,398.5092611312866,398.5092611312866,398.5092611312866,398.5092611312866,398.5092611312866,400.61403703689575,3,2.234520196914673,None,,,,,,,,,,,,,,,,,,10,4,2025-02-13_11h54.45.141,comp,2024.2.5,57.856618681615785,2025-02-13 12h01.15.967628 -0500,
130,130,0,filler_square,None,None,None,None,None,None,None,None,None,None,3,1.1103274822235107,None,,,,,0,0,0,0,0,130,130,177,400.631808757782,,,,,,,,,,,,,,,,,,,,,,,,,,,,,,,,,,,,,,,,,,,,,,,,,,,,,,,,,,,,,,,,,,,,,,,,,,,,,,,,,74.22071263645262,81.35290671818538,58.901614476085086,67.75862600472425,105.05445444528252,105.05445444528252,3.0,3.2,-171,-281,0,16,182,261,400.61602783203125,400.61610770225525,400.61931109428406,400.631808757782,400.77651810646057,400.77651810646057,400.77651810646057,400.77651810646057,400.77651810646057,400.77651810646057,400.77651810646057,401.74763774871826,3,1.1103274822235107,None,,,,,,,,,,,,,,,,,,10,4,2025-02-13_11h54.45.141,comp,2024.2.5,57.856618681615785,2025-02-13 12h01.15.967628 -0500,
131,131,0,critical,hdw,45.0,4.0,upper,200.0,125.0,117.0,117.0,125.0,200.0,1,2.350403308868408,None,,,,,0,0,0,0,0,131,131,113,401.76863980293274,,,,,,,,,,,,,,,,,,,,,,,,,,,,,,,,,,,,,,,,,,,,,,,,,,,,,,,,,,,,,,,,,,,,,,,,,,,,,,,,,200.0,125.0,117.0,117.0,125.0,200.0,4.0,4.2,-217,14,0,-288,254,-4,401.74915957450867,401.74929189682007,401.7529652118683,401.76863980293274,401.91097140312195,401.91097140312195,401.91097140312195,401.91097140312195,401.91097140312195,401.91097140312195,401.91097140312195,404.1276695728302,1,2.350403308868408,None,,,,,,,,,,,,,,,,,,10,4,2025-02-13_11h54.45.141,comp,2024.2.5,57.856618681615785,2025-02-13 12h01.15.967628 -0500,
132,132,0,critical,dhw,45.0,4.0,upper,117.0,117.0,200.0,125.0,125.0,200.0,3,1.7025699615478516,None,,,,,0,0,0,0,0,132,132,53,404.14378547668457,,,,,,,,,,,,,,,,,,,,,,,,,,,,,,,,,,,,,,,,,,,,,,,,,,,,,,,,,,,,,,,,,,,,,,,,,,,,,,,,,117.0,117.0,200.0,125.0,125.0,200.0,4.0,4.1,-217,-268,0,16,258,-256,404.1293029785156,404.1294002532959,404.1329972743988,404.14378547668457,404.2922878265381,404.2922878265381,404.2922878265381,404.2922878265381,404.2922878265381,404.2922878265381,404.2922878265381,405.8606684207916,3,1.7025699615478516,None,,,,,,,,,,,,,,,,,,10,4,2025-02-13_11h54.45.141,comp,2024.2.5,57.856618681615785,2025-02-13 12h01.15.967628 -0500,
133,133,0,critical,hdw,60.0,1.0,lower,133.0,57.0,55.0,55.0,57.0,133.0,1,1.7918951511383057,None,,,,,0,0,0,0,0,133,133,114,405.87819600105286,,,,,,,,,,,,,,,,,,,,,,,,,,,,,,,,,,,,,,,,,,,,,,,,,,,,,,,,,,,,,,,,,,,,,,,,,,,,,,,,,133.0,57.0,55.0,55.0,57.0,133.0,1.0,1.1,-632,251,-480,274,-290,265,405.86226415634155,405.8623414039612,405.86558723449707,405.87819600105286,406.0138280391693,406.0138280391693,406.0138280391693,406.0138280391693,406.0138280391693,406.0138280391693,406.0138280391693,407.68537974357605,1,1.7918951511383057,None,,,,,,,,,,,,,,,,,,10,4,2025-02-13_11h54.45.141,comp,2024.2.5,57.856618681615785,2025-02-13 12h01.15.967628 -0500,
134,134,0,critical,hwd,60.0,4.0,upper,200.0,125.0,125.0,200.0,100.0,100.0,2,1.8100039958953857,None,,,,,0,0,0,0,0,134,134,107,407.7010407447815,,,,,,,,,,,,,,,,,,,,,,,,,,,,,,,,,,,,,,,,,,,,,,,,,,,,,,,,,,,,,,,,,,,,,,,,,,,,,,,,,200.0,125.0,125.0,200.0,100.0,100.0,4.0,4.2,-258,6,0,-280,246,-8,407.6869399547577,407.68701815605164,407.6899108886719,407.7010407447815,407.8429436683655,407.8429436683655,407.8429436683655,407.8429436683655,407.8429436683655,407.8429436683655,407.8429436683655,409.51896238327026,2,1.8100039958953857,None,,,,,,,,,,,,,,,,,,10,4,2025-02-13_11h54.45.141,comp,2024.2.5,57.856618681615785,2025-02-13 12h01.15.967628 -0500,
135,135,0,critical,dwh,45.0,2.1,lower,65.0,65.0,57.0,133.0,133.0,57.0,3,2.2150442600250244,None,,,,,0,0,0,0,0,135,135,28,409.53516483306885,,,,,,,,,,,,,,,,,,,,,,,,,,,,,,,,,,,,,,,,,,,,,,,,,,,,,,,,,,,,,,,,,,,,,,,,,,,,,,,,,65.0,65.0,57.0,133.0,133.0,57.0,2.1,2.11,-195,257,0,287,191,-266,409.5204701423645,409.52054953575134,409.52351808547974,409.53516483306885,409.67950773239136,409.67950773239136,409.67950773239136,409.67950773239136,409.67950773239136,409.67950773239136,409.67950773239136,411.76290464401245,3,2.2150442600250244,None,,,,,,,,,,,,,,,,,,10,4,2025-02-13_11h54.45.141,comp,2024.2.5,57.856618681615785,2025-02-13 12h01.15.967628 -0500,
136,136,0,filler_random,None,None,None,None,None,None,None,None,None,None,2,1.12833833694458,None,,,,,0,0,0,0,0,136,136,151,411.78236651420593,,,,,,,,,,,,,,,,,,,,,,,,,,,,,,,,,,,,,,,,,,,,,,,,,,,,,,,,,,,,,,,,,,,,,,,,,,,,,,,,,121.08291142369882,62.56176414653055,193.37560008781313,69.31100686625713,85.0404742709967,95.80328781917646,2.2,2.21,-162,-266,0,271,179,284,411.76472449302673,411.76483511924744,411.768212556839,411.78236651420593,411.92970538139343,411.92970538139343,411.92970538139343,411.92970538139343,411.92970538139343,411.92970538139343,411.92970538139343,412.91277384757996,2,1.12833833694458,None,,,,,,,,,,,,,,,,,,10,4,2025-02-13_11h54.45.141,comp,2024.2.5,57.856618681615785,2025-02-13 12h01.15.967628 -0500,
137,137,0,critical,wdh,45.0,3.0,lower,57.0,133.0,65.0,65.0,133.0,57.0,3,3.2690370082855225,None,,,,,0,0,0,0,0,137,137,74,412.92969012260437,,,,,,,,,,,,,,,,,,,,,,,,,,,,,,,,,,,,,,,,,,,,,,,,,,,,,,,,,,,,,,,,,,,,,,,,,,,,,,,,,57.0,133.0,65.0,65.0,133.0,57.0,3.0,3.2,-195,-274,0,11,157,254,412.91431045532227,412.91439032554626,412.9174418449402,412.92969012260437,413.08079648017883,413.08079648017883,413.08079648017883,413.08079648017883,413.08079648017883,413.08079648017883,413.08079648017883,416.21574687957764,3,3.2690370082855225,None,,,,,,,,,,,,,,,,,,10,4,2025-02-13_11h54.45.141,comp,2024.2.5,57.856618681615785,2025-02-13 12h01.15.967628 -0500,
138,138,0,critical,dhw,60.0,3.0,lower,55.0,55.0,133.0,57.0,57.0,133.0,2,1.073953628540039,None,,,,,0,0,0,0,0,138,138,56,416.2310371398926,,,,,,,,,,,,,,,,,,,,,,,,,,,,,,,,,,,,,,,,,,,,,,,,,,,,,,,,,,,,,,,,,,,,,,,,,,,,,,,,,55.0,55.0,133.0,57.0,57.0,133.0,3.0,3.2,-152,-258,0,13,191,268,416.21729016304016,416.2173681259155,416.22076630592346,416.2310371398926,416.3811528682709,416.3811528682709,416.3811528682709,416.3811528682709,416.3811528682709,416.3811528682709,416.3811528682709,417.3155653476715,2,1.073953628540039,None,,,,,,,,,,,,,,,,,,10,4,2025-02-13_11h54.45.141,comp,2024.2.5,57.856618681615785,2025-02-13 12h01.15.967628 -0500,
139,139,0,filler_square,None,None,None,None,None,None,None,None,None,None,2,1.4274718761444092,None,,,,,0,0,0,0,0,139,139,183,417.3322877883911,,,,,,,,,,,,,,,,,,,,,,,,,,,,,,,,,,,,,,,,,,,,,,,,,,,,,,,,,,,,,,,,,,,,,,,,,,,,,,,,,137.0869089330277,94.58547339709347,167.41824973618844,167.41824973618844,163.61444247920892,138.9232295606549,2.2,2.21,-227,-275,0,261,249,280,417.3174271583557,417.3175060749054,417.32131028175354,417.3322877883911,417.479332447052,417.479332447052,417.479332447052,417.479332447052,417.479332447052,417.479332447052,417.479332447052,418.7664866447449,2,1.4274718761444092,None,,,,,,,,,,,,,,,,,,10,4,2025-02-13_11h54.45.141,comp,2024.2.5,57.856618681615785,2025-02-13 12h01.15.967628 -0500,
