thisN,thisTrialN,thisRepN,effect,order,distance,config,diag,h_1,w_1,h_2,w_2,h_3,w_3,rect_choice.keys,rect_choice.rt,rect_choice.duration,instructions_loop.thisRepN,instructions_loop.thisTrialN,instructions_loop.thisN,instructions_loop.thisIndex,blocks.thisRepN,blocks.thisTrialN,blocks.thisN,blocks.thisIndex,trials.thisRepN,trials.thisTrialN,trials.thisN,trials.thisIndex,thisRow.t,notes,consent.started,agree_button.started,decline_button.started,consent_img.started,mouse.started,consent.stopped,agree_button.numClicks,agree_button.timesOn,agree_button.timesOff,decline_button.numClicks,decline_button.timesOn,decline_button.timesOff,mouse.x,mouse.y,mouse.leftButton,mouse.midButton,mouse.rightButton,mouse.time,mouse.clicked_name,exp_params.started,exp_params.stopped,welcome.started,welcome_text.started,welcome.stopped,instructions_1.started,instructions_1_text_1.started,instructions_1_text_2.started,key_resp.started,instructions_1.stopped,instructions_loop.key_resp.keys,instructions_loop.key_resp.rt,instructions_loop.key_resp.duration,instructions_2.started,instructions_2_text_1.started,instructions_2_text_2.started,key_resp_2.started,instructions_2.stopped,instructions_loop.key_resp_2.keys,instructions_loop.key_resp_2.rt,instructions_loop.key_resp_2.duration,instructions_3.started,instructions_3_text_1.started,r1_instr3.started,r2_instr3.started,r3_instr3.started,r1_instr3_label.started,r2_instr3_label.started,r3_instr3_label.started,instructions_3_text_3.started,instructions_3_text_4.started,key_resp_3.started,instructions_3.stopped,instructions_loop.key_resp_3.keys,instructions_loop.key_resp_3.rt,instructions_loop.key_resp_3.duration,instructions_4.started,instructions_4_text_1.started,instructions_4_text_3.started,instructions_4_text_2.started,key_resp_4.started,instructions_4.stopped,instructions_loop.key_resp_4.keys,instructions_loop.key_resp_4.rt,instructions_loop.key_resp_4.duration,instructions_5.started,instructions_5_text_1.started,instructions_5_text_2.started,key_resp_5.started,instructions_5.stopped,instructions_loop.key_resp_5.keys,instructions_loop.key_resp_5.rt,instructions_loop.key_resp_5.duration,start_exp.started,start_exp_text.started,key_resp_6.started,start_exp.stopped,key_resp_6.keys,key_resp_6.rt,key_resp_6.duration,h_1_tmp,w_1_tmp,h_2_tmp,w_2_tmp,h_3_tmp,w_3_tmp,config_tmp,config_tmp_1,r_1_x,r_1_y,r_2_x,r_2_y,r_3_x,r_3_y,pre_trial.started,pre_trial.stopped,choice_trial.started,rect_choice.started,r_1.started,r_2.started,r_3.started,r_1_label.started,r_2_label.started,r_3_label.started,prompt.started,choice_trial.stopped,trials.rect_choice.keys,trials.rect_choice.rt,trials.rect_choice.duration,end_block.started,end_block_text.started,end_block.stopped,end.started,end_text.started,key_resp_7.started,end.stopped,key_resp_7.keys,key_resp_7.rt,key_resp_7.duration,debriefing.started,debrief_form.started,end_debrief.started,debriefing.stopped,end_debrief.keys,end_debrief.rt,end_debrief.duration,participant,computer,date,expName,psychopyVersion,frameRate,expStart,
,,,,,,,,,,,,,,,,,,,,,,,,,,,,,,,0.01481938362121582,0.055344343185424805,0.055344343185424805,0.055344343185424805,0.01461648941040039,58.19758057594299,1,[58.13997149467468],[58.13999009132385],0,,,"[-173.0, -226.0, -226.0, -275.0, -275.0, -69.0]","[189.0, 206.0, 206.0, 193.0, 193.0, -489.0]","[1, 1, 1, 1, 1, 1]","[0, 0, 0, 0, 0, 0]","[0, 0, 0, 0, 0, 0]","[16.449991941452026, 17.670088052749634, 17.978984355926514, 20.971166849136353, 21.15937352180481, 58.18234372138977]","[None, None, None, None, None, 'agree_button']",,,,,,,,,,,,,,,,,,,,,,,,,,,,,,,,,,,,,,,,,,,,,,,,,,,,,,,,,,,,,,,,,,,,,,,,,,,,,,,,,,,,,,,,,,,,,,,,,,,,,,,,,,,1,1,2025-02-11_14h46.12.418,comp,2024.2.5,None,2025-02-11 14h46.21.291316 -0500,
,,,,,,,,,,,,,,,,,,,,,,,,,,,,,,,,,,,,,,,,,,,,,,,,,,58.19840049743652,58.1984601020813,,,,,,,,,,,,,,,,,,,,,,,,,,,,,,,,,,,,,,,,,,,,,,,,,,,,,,,,,,,,,,,,,,,,,,,,,,,,,,,,,,,,,,,,,,,,,,,,,,,,,,,,,1,1,2025-02-11_14h46.12.418,comp,2024.2.5,None,2025-02-11 14h46.21.291316 -0500,
,,,,,,,,,,,,,,,,,,,,,,,,,,,,,,,,,,,,,,,,,,,,,,,,,,,,58.198498249053955,58.234172105789185,60.207159757614136,,,,,,,,,,,,,,,,,,,,,,,,,,,,,,,,,,,,,,,,,,,,,,,,,,,,,,,,,,,,,,,,,,,,,,,,,,,,,,,,,,,,,,,,,,,,,,,,,,,,,,1,1,2025-02-11_14h46.12.418,comp,2024.2.5,None,2025-02-11 14h46.21.291316 -0500,
0,0,0,,,,,,,,,,,,,,,0,0,0,0,,,,,,,,,60.22519874572754,,,,,,,,,,,,,,,,,,,,,,,,,,60.20813298225403,60.22519874572754,60.22519874572754,61.707855463027954,64.79316830635071,space,3.069284439086914,None,64.79332828521729,64.80814671516418,64.80814671516418,66.30928158760071,73.64381504058838,space,7.3161468505859375,None,73.64396286010742,73.68127202987671,73.68127202987671,73.68127202987671,73.68127202987671,73.68127202987671,73.68127202987671,73.68127202987671,73.68127202987671,73.68127202987671,75.14629006385803,79.49897480010986,space,4.334539890289307,None,79.49918365478516,79.5162501335144,79.5162501335144,79.5162501335144,81.01333737373352,86.41899514198303,space,5.403245449066162,None,86.4192008972168,86.43967723846436,86.43967723846436,87.92925357818604,88.2661805152893,space,0.3190956115722656,None,88.26639032363892,88.28191256523132,88.28191256523132,89.14883089065552,space,0.8545520305633545,None,,,,,,,,,,,,,,,,,,,,,,,,,,,,,,,,,,,,,,,,,,,,,,,1,1,2025-02-11_14h46.12.418,comp,2024.2.5,None,2025-02-11 14h46.21.291316 -0500,
0,0,0,filler_square,None,None,None,None,None,None,None,None,None,None,1,2.6000757217407227,None,,,,,0,0,0,0,0,0,0,173,89.3133053779602,,,,,,,,,,,,,,,,,,,,,,,,,,,,,,,,,,,,,,,,,,,,,,,,,,,,,,,,,,,,,,,,,,,,,,,,,,,,,,,,,176.5884724514021,176.5884724514021,152.17992288924736,157.00415591967658,67.88315311288103,99.82907865745753,2.1,2.11,-263,281,0,271,224,-281,89.29622650146484,89.29627871513367,89.29816365242004,89.3133053779602,89.45679783821106,89.45679783821106,89.45679783821106,89.45679783821106,89.45679783821106,89.45679783821106,89.45679783821106,91.92017483711243,1,2.6000757217407227,None,,,,,,,,,,,,,,,,,,1,1,2025-02-11_14h46.12.418,comp,2024.2.5,None,2025-02-11 14h46.21.291316 -0500,
1,1,0,filler_random,None,None,None,None,None,None,None,None,None,None,3,3.720057487487793,None,,,,,0,0,0,0,0,1,1,141,91.93613719940186,,,,,,,,,,,,,,,,,,,,,,,,,,,,,,,,,,,,,,,,,,,,,,,,,,,,,,,,,,,,,,,,,,,,,,,,,,,,,,,,,70.20023685681615,82.21735429071543,113.12324103523781,102.52688545846638,161.51830396008478,78.07285333459774,3.0,3.1,-188,273,0,-2,186,-254,91.92187356948853,91.92192935943604,91.9248776435852,91.93613719940186,92.0814642906189,92.0814642906189,92.0814642906189,92.0814642906189,92.0814642906189,92.0814642906189,92.0814642906189,95.66735124588013,3,3.720057487487793,None,,,,,,,,,,,,,,,,,,1,1,2025-02-11_14h46.12.418,comp,2024.2.5,None,2025-02-11 14h46.21.291316 -0500,
2,2,0,filler_square,None,None,None,None,None,None,None,None,None,None,2,3.6684024333953857,None,,,,,0,0,0,0,0,2,2,202,95.68373227119446,,,,,,,,,,,,,,,,,,,,,,,,,,,,,,,,,,,,,,,,,,,,,,,,,,,,,,,,,,,,,,,,,,,,,,,,,,,,,,,,,57.012774166505956,62.93965017386143,63.890431687449556,63.890431687449556,59.717468614351546,57.35687911620292,2.2,2.22,-159,266,0,-267,157,-250,95.66912364959717,95.66920018196106,95.67240858078003,95.68373227119446,95.83278489112854,95.83278489112854,95.83278489112854,95.83278489112854,95.83278489112854,95.83278489112854,95.83278489112854,99.36882781982422,2,3.6684024333953857,None,,,,,,,,,,,,,,,,,,1,1,2025-02-11_14h46.12.418,comp,2024.2.5,None,2025-02-11 14h46.21.291316 -0500,
3,3,0,critical,hwd,60.0,1.0,lower,133.0,57.0,57.0,133.0,55.0,55.0,2,3.736055374145508,None,,,,,0,0,0,0,0,3,3,102,99.38458967208862,,,,,,,,,,,,,,,,,,,,,,,,,,,,,,,,,,,,,,,,,,,,,,,,,,,,,,,,,,,,,,,,,,,,,,,,,,,,,,,,,133.0,57.0,57.0,133.0,55.0,55.0,1.0,1.2,-191,1,0,-12,190,10,99.37033891677856,99.37041234970093,99.37362003326416,99.38458967208862,99.54147219657898,99.54147219657898,99.54147219657898,99.54147219657898,99.54147219657898,99.54147219657898,99.54147219657898,103.12291860580444,2,3.736055374145508,None,,,,,,,,,,,,,,,,,,1,1,2025-02-11_14h46.12.418,comp,2024.2.5,None,2025-02-11 14h46.21.291316 -0500,
4,4,0,filler_square,None,None,None,None,None,None,None,None,None,None,1,2.4364163875579834,None,,,,,0,0,0,0,0,4,4,174,103.13953137397766,,,,,,,,,,,,,,,,,,,,,,,,,,,,,,,,,,,,,,,,,,,,,,,,,,,,,,,,,,,,,,,,,,,,,,,,,,,,,,,,,174.9033244935645,174.9033244935645,79.66691028144092,61.48886342153452,68.62847082030775,107.29994098988183,2.1,2.12,-214,-264,0,-254,180,252,103.12498879432678,103.12506937980652,103.12840723991394,103.13953137397766,103.2931740283966,103.2931740283966,103.2931740283966,103.2931740283966,103.2931740283966,103.2931740283966,103.2931740283966,105.58697819709778,1,2.4364163875579834,None,,,,,,,,,,,,,,,,,,1,1,2025-02-11_14h46.12.418,comp,2024.2.5,None,2025-02-11 14h46.21.291316 -0500,
5,5,0,critical,hwd,45.0,1.0,upper,200.0,125.0,125.0,200.0,117.0,117.0,2,2.7967076301574707,None,,,,,0,0,0,0,0,5,5,97,105.60396575927734,,,,,,,,,,,,,,,,,,,,,,,,,,,,,,,,,,,,,,,,,,,,,,,,,,,,,,,,,,,,,,,,,,,,,,,,,,,,,,,,,200.0,125.0,125.0,200.0,117.0,117.0,1.0,1.1,-738,278,-480,258,-226,268,105.58869981765747,105.58878684043884,105.59227132797241,105.60396575927734,105.75458550453186,105.75458550453186,105.75458550453186,105.75458550453186,105.75458550453186,105.75458550453186,105.75458550453186,108.40620970726013,2,2.7967076301574707,None,,,,,,,,,,,,,,,,,,1,1,2025-02-11_14h46.12.418,comp,2024.2.5,None,2025-02-11 14h46.21.291316 -0500,
6,6,0,critical,whd,60.0,2.1,lower,57.0,133.0,133.0,57.0,55.0,55.0,2,3.1455841064453125,None,,,,,0,0,0,0,0,6,6,14,108.42275333404541,,,,,,,,,,,,,,,,,,,,,,,,,,,,,,,,,,,,,,,,,,,,,,,,,,,,,,,,,,,,,,,,,,,,,,,,,,,,,,,,,57.0,133.0,133.0,57.0,55.0,55.0,2.1,2.11,-191,261,0,277,152,-268,108.40783858299255,108.40795159339905,108.4118721485138,108.42275333404541,108.5770423412323,108.5770423412323,108.5770423412323,108.5770423412323,108.5770423412323,108.5770423412323,108.5770423412323,111.5727219581604,2,3.1455841064453125,None,,,,,,,,,,,,,,,,,,1,1,2025-02-11_14h46.12.418,comp,2024.2.5,None,2025-02-11 14h46.21.291316 -0500,
7,7,0,catch,None,None,None,None,None,None,None,None,None,None,3,2.3391735553741455,None,,,,,0,0,0,0,0,7,7,121,111.58941984176636,,,,,,,,,,,,,,,,,,,,,,,,,,,,,,,,,,,,,,,,,,,,,,,,,,,,,,,,,,,,,,,,,,,,,,,,,,,,,,,,,75,115,127,63,173,152,4.0,4.1,-185,-251,0,-17,204,-251,111.57470893859863,111.57478833198547,111.57790112495422,111.58941984176636,111.735506772995,111.735506772995,111.735506772995,111.735506772995,111.735506772995,111.735506772995,111.735506772995,113.93072581291199,3,2.3391735553741455,None,,,,,,,,,,,,,,,,,,1,1,2025-02-11_14h46.12.418,comp,2024.2.5,None,2025-02-11 14h46.21.291316 -0500,
8,8,0,critical,dwh,60.0,1.0,upper,100.0,100.0,125.0,200.0,200.0,125.0,2,3.6172595024108887,None,,,,,0,0,0,0,0,8,8,67,113.95103216171265,,,,,,,,,,,,,,,,,,,,,,,,,,,,,,,,,,,,,,,,,,,,,,,,,,,,,,,,,,,,,,,,,,,,,,,,,,,,,,,,,100.0,100.0,125.0,200.0,200.0,125.0,1.0,1.1,-726,258,-480,277,-222,280,113.93227696418762,113.93235611915588,113.93534564971924,113.95103216171265,114.09072279930115,114.09072279930115,114.09072279930115,114.09072279930115,114.09072279930115,114.09072279930115,114.09072279930115,117.57624173164368,2,3.6172595024108887,None,,,,,,,,,,,,,,,,,,1,1,2025-02-11_14h46.12.418,comp,2024.2.5,None,2025-02-11 14h46.21.291316 -0500,
9,9,0,critical,wdh,60.0,3.0,lower,57.0,133.0,55.0,55.0,133.0,57.0,1,6.312344074249268,None,,,,,0,0,0,0,0,9,9,80,117.59212374687195,,,,,,,,,,,,,,,,,,,,,,,,,,,,,,,,,,,,,,,,,,,,,,,,,,,,,,,,,,,,,,,,,,,,,,,,,,,,,,,,,57.0,133.0,55.0,55.0,133.0,57.0,3.0,3.2,-190,-268,0,-18,152,266,117.57783675193787,117.57791829109192,117.58106064796448,117.59212374687195,117.73995876312256,117.73995876312256,117.73995876312256,117.73995876312256,117.73995876312256,117.73995876312256,117.73995876312256,123.91019487380981,1,6.312344074249268,None,,,,,,,,,,,,,,,,,,1,1,2025-02-11_14h46.12.418,comp,2024.2.5,None,2025-02-11 14h46.21.291316 -0500,
10,10,0,critical,whd,45.0,2.1,upper,125.0,200.0,200.0,125.0,117.0,117.0,1,1.88893461227417,None,,,,,0,0,0,0,0,10,10,13,123.92683911323547,,,,,,,,,,,,,,,,,,,,,,,,,,,,,,,,,,,,,,,,,,,,,,,,,,,,,,,,,,,,,,,,,,,,,,,,,,,,,,,,,125.0,200.0,200.0,125.0,117.0,117.0,2.1,2.12,-258,-253,0,-260,217,259,123.91175651550293,123.91183614730835,123.9160943031311,123.92683911323547,124.07521224021912,124.07521224021912,124.07521224021912,124.07521224021912,124.07521224021912,124.07521224021912,124.07521224021912,125.8178162574768,1,1.88893461227417,None,,,,,,,,,,,,,,,,,,1,1,2025-02-11_14h46.12.418,comp,2024.2.5,None,2025-02-11 14h46.21.291316 -0500,
11,11,0,filler_square,None,None,None,None,None,None,None,None,None,None,3,1.7490289211273193,None,,,,,0,0,0,0,0,11,11,194,125.8342878818512,,,,,,,,,,,,,,,,,,,,,,,,,,,,,,,,,,,,,,,,,,,,,,,,,,,,,,,,,,,,,,,,,,,,,,,,,,,,,,,,,57.462731602463236,57.373251776821746,57.344077068118786,57.346573801626,57.68474382130304,57.68474382130304,1.0,1.2,-153,-15,0,2,154,-19,125.81983590126038,125.81991314888,125.82328796386719,125.8342878818512,125.97790670394897,125.97790670394897,125.97790670394897,125.97790670394897,125.97790670394897,125.97790670394897,125.97790670394897,127.59425973892212,3,1.7490289211273193,None,,,,,,,,,,,,,,,,,,1,1,2025-02-11_14h46.12.418,comp,2024.2.5,None,2025-02-11 14h46.21.291316 -0500,
12,12,0,filler_random,None,None,None,None,None,None,None,None,None,None,2,1.1805634498596191,None,,,,,0,0,0,0,0,12,12,135,127.61077547073364,,,,,,,,,,,,,,,,,,,,,,,,,,,,,,,,,,,,,,,,,,,,,,,,,,,,,,,,,,,,,,,,,,,,,,,,,,,,,,,,,132.22390995986606,98.73768032815926,142.51217007344553,197.50590469920266,116.75759223476993,144.55976320070076,4.0,4.1,-244,-270,0,16,267,-277,127.59596872329712,127.59604859352112,127.59964609146118,127.61077547073364,127.76397633552551,127.76397633552551,127.76397633552551,127.76397633552551,127.76397633552551,127.76397633552551,127.76397633552551,128.8049521446228,2,1.1805634498596191,None,,,,,,,,,,,,,,,,,,1,1,2025-02-11_14h46.12.418,comp,2024.2.5,None,2025-02-11 14h46.21.291316 -0500,
13,13,0,catch,None,None,None,None,None,None,None,None,None,None,2,0.9300079345703125,None,,,,,0,0,0,0,0,13,13,123,128.8221299648285,,,,,,,,,,,,,,,,,,,,,,,,,,,,,,,,,,,,,,,,,,,,,,,,,,,,,,,,,,,,,,,,,,,,,,,,,,,,,,,,,63,127,134,191,77,113,1.0,1.1,-735,283,-480,252,-232,265,128.80721378326416,128.8072910308838,128.8107476234436,128.8221299648285,128.96188521385193,128.96188521385193,128.96188521385193,128.96188521385193,128.96188521385193,128.96188521385193,128.96188521385193,129.76222348213196,2,0.9300079345703125,None,,,,,,,,,,,,,,,,,,1,1,2025-02-11_14h46.12.418,comp,2024.2.5,None,2025-02-11 14h46.21.291316 -0500,
14,14,0,critical,hwd,60.0,2.1,lower,133.0,57.0,57.0,133.0,55.0,55.0,2,1.3098711967468262,None,,,,,0,0,0,0,0,14,14,42,129.7781765460968,,,,,,,,,,,,,,,,,,,,,,,,,,,,,,,,,,,,,,,,,,,,,,,,,,,,,,,,,,,,,,,,,,,,,,,,,,,,,,,,,133.0,57.0,57.0,133.0,55.0,55.0,2.1,2.12,-191,-260,0,-270,190,287,129.7637541294098,129.7638328075409,129.76744508743286,129.7781765460968,129.93547916412354,129.93547916412354,129.93547916412354,129.93547916412354,129.93547916412354,129.93547916412354,129.93547916412354,131.09534764289856,2,1.3098711967468262,None,,,,,,,,,,,,,,,,,,1,1,2025-02-11_14h46.12.418,comp,2024.2.5,None,2025-02-11 14h46.21.291316 -0500,
15,15,0,critical,whd,45.0,3.0,upper,125.0,200.0,200.0,125.0,117.0,117.0,2,1.320990800857544,None,,,,,0,0,0,0,0,15,15,87,131.11020302772522,,,,,,,,,,,,,,,,,,,,,,,,,,,,,,,,,,,,,,,,,,,,,,,,,,,,,,,,,,,,,,,,,,,,,,,,,,,,,,,,,125.0,200.0,200.0,125.0,117.0,117.0,3.0,3.1,-258,287,0,-10,217,-263,131.0969157218933,131.09699082374573,131.10056018829346,131.11020302772522,131.2611906528473,131.2611906528473,131.2611906528473,131.2611906528473,131.2611906528473,131.2611906528473,131.2611906528473,132.44491696357727,2,1.320990800857544,None,,,,,,,,,,,,,,,,,,1,1,2025-02-11_14h46.12.418,comp,2024.2.5,None,2025-02-11 14h46.21.291316 -0500,
16,16,0,critical,wdh,45.0,3.0,lower,57.0,133.0,65.0,65.0,133.0,57.0,3,2.056490182876587,None,,,,,0,0,0,0,0,16,16,74,132.46276354789734,,,,,,,,,,,,,,,,,,,,,,,,,,,,,,,,,,,,,,,,,,,,,,,,,,,,,,,,,,,,,,,,,,,,,,,,,,,,,,,,,57.0,133.0,65.0,65.0,133.0,57.0,3.0,3.1,-195,252,0,-15,157,-254,132.4465775489807,132.44665455818176,132.4502034187317,132.46276354789734,132.60065984725952,132.60065984725952,132.60065984725952,132.60065984725952,132.60065984725952,132.60065984725952,132.60065984725952,134.53253555297852,3,2.056490182876587,None,,,,,,,,,,,,,,,,,,1,1,2025-02-11_14h46.12.418,comp,2024.2.5,None,2025-02-11 14h46.21.291316 -0500,
17,17,0,catch,None,None,None,None,None,None,None,None,None,None,1,1.0746712684631348,None,,,,,0,0,0,0,0,17,17,120,134.54924702644348,,,,,,,,,,,,,,,,,,,,,,,,,,,,,,,,,,,,,,,,,,,,,,,,,,,,,,,,,,,,,,,,,,,,,,,,,,,,,,,,,141,184,104,86,105,85,4.0,4.2,-231,-17,0,-272,182,-17,134.5346245765686,134.53470182418823,134.53868579864502,134.54924702644348,134.69741368293762,134.69741368293762,134.69741368293762,134.69741368293762,134.69741368293762,134.69741368293762,134.69741368293762,135.63012886047363,1,1.0746712684631348,None,,,,,,,,,,,,,,,,,,1,1,2025-02-11_14h46.12.418,comp,2024.2.5,None,2025-02-11 14h46.21.291316 -0500,
18,18,0,critical,whd,45.0,2.1,lower,57.0,133.0,133.0,57.0,65.0,65.0,2,1.144287347793579,None,,,,,0,0,0,0,0,18,18,12,135.64742040634155,,,,,,,,,,,,,,,,,,,,,,,,,,,,,,,,,,,,,,,,,,,,,,,,,,,,,,,,,,,,,,,,,,,,,,,,,,,,,,,,,57.0,133.0,133.0,57.0,65.0,65.0,2.1,2.11,-191,287,0,265,157,-287,135.6317343711853,135.63181686401367,135.63563632965088,135.64742040634155,135.7960488796234,135.7960488796234,135.7960488796234,135.7960488796234,135.7960488796234,135.7960488796234,135.7960488796234,136.79746270179749,2,1.144287347793579,None,,,,,,,,,,,,,,,,,,1,1,2025-02-11_14h46.12.418,comp,2024.2.5,None,2025-02-11 14h46.21.291316 -0500,
19,19,0,critical,whd,60.0,2.1,lower,57.0,133.0,133.0,57.0,55.0,55.0,2,1.0421340465545654,None,,,,,0,0,0,0,0,19,19,38,136.81394505500793,,,,,,,,,,,,,,,,,,,,,,,,,,,,,,,,,,,,,,,,,,,,,,,,,,,,,,,,,,,,,,,,,,,,,,,,,,,,,,,,,57.0,133.0,133.0,57.0,55.0,55.0,2.1,2.11,-191,281,0,275,152,-283,136.79922533035278,136.7993447780609,136.80324387550354,136.81394505500793,136.96183276176453,136.96183276176453,136.96183276176453,136.96183276176453,136.96183276176453,136.96183276176453,136.96183276176453,137.8661458492279,2,1.0421340465545654,None,,,,,,,,,,,,,,,,,,1,1,2025-02-11_14h46.12.418,comp,2024.2.5,None,2025-02-11 14h46.21.291316 -0500,
20,20,0,critical,hdw,60.0,2.1,upper,200.0,125.0,100.0,100.0,125.0,200.0,3,1.6297049522399902,None,,,,,0,0,0,0,0,20,20,47,137.8819227218628,,,,,,,,,,,,,,,,,,,,,,,,,,,,,,,,,,,,,,,,,,,,,,,,,,,,,,,,,,,,,,,,,,,,,,,,,,,,,,,,,200.0,125.0,100.0,100.0,125.0,200.0,2.1,2.11,-208,287,0,276,246,-258,137.86779475212097,137.86787486076355,137.87122535705566,137.8819227218628,138.03020405769348,138.03020405769348,138.03020405769348,138.03020405769348,138.03020405769348,138.03020405769348,138.03020405769348,139.51475858688354,3,1.6297049522399902,None,,,,,,,,,,,,,,,,,,1,1,2025-02-11_14h46.12.418,comp,2024.2.5,None,2025-02-11 14h46.21.291316 -0500,
21,21,0,catch,None,None,None,None,None,None,None,None,None,None,1,0.92018723487854,None,,,,,0,0,0,0,0,21,21,125,139.53487348556519,,,,,,,,,,,,,,,,,,,,,,,,,,,,,,,,,,,,,,,,,,,,,,,,,,,,,,,,,,,,,,,,,,,,,,,,,,,,,,,,,132,193,125,65,110,80,2.1,2.11,-225,256,0,287,168,-254,139.51701068878174,139.51712250709534,139.5209400653839,139.53487348556519,139.68316268920898,139.68316268920898,139.68316268920898,139.68316268920898,139.68316268920898,139.68316268920898,139.68316268920898,140.46818232536316,1,0.92018723487854,None,,,,,,,,,,,,,,,,,,1,1,2025-02-11_14h46.12.418,comp,2024.2.5,None,2025-02-11 14h46.21.291316 -0500,
22,22,0,catch,None,None,None,None,None,None,None,None,None,None,2,0.9558084011077881,None,,,,,0,0,0,0,0,22,22,122,140.483904838562,,,,,,,,,,,,,,,,,,,,,,,,,,,,,,,,,,,,,,,,,,,,,,,,,,,,,,,,,,,,,,,,,,,,,,,,,,,,,,,,,124,66,141,184,83,107,3.0,3.1,-221,264,0,-10,242,-267,140.4701690673828,140.47025275230408,140.47361993789673,140.483904838562,140.6302568912506,140.6302568912506,140.6302568912506,140.6302568912506,140.6302568912506,140.6302568912506,140.6302568912506,141.44807124137878,2,0.9558084011077881,None,,,,,,,,,,,,,,,,,,1,1,2025-02-11_14h46.12.418,comp,2024.2.5,None,2025-02-11 14h46.21.291316 -0500,
23,23,0,critical,dhw,45.0,4.0,lower,65.0,65.0,133.0,57.0,57.0,133.0,3,1.4074602127075195,None,,,,,0,0,0,0,0,23,23,52,141.4637894630432,,,,,,,,,,,,,,,,,,,,,,,,,,,,,,,,,,,,,,,,,,,,,,,,,,,,,,,,,,,,,,,,,,,,,,,,,,,,,,,,,65.0,65.0,133.0,57.0,57.0,133.0,4.0,4.1,-157,-272,0,16,191,-269,141.4497275352478,141.44982981681824,141.45321130752563,141.4637894630432,141.61544942855835,141.61544942855835,141.61544942855835,141.61544942855835,141.61544942855835,141.61544942855835,141.61544942855835,142.87513494491577,3,1.4074602127075195,None,,,,,,,,,,,,,,,,,,1,1,2025-02-11_14h46.12.418,comp,2024.2.5,None,2025-02-11 14h46.21.291316 -0500,
24,24,0,filler_square,None,None,None,None,None,None,None,None,None,None,2,1.1618108749389648,None,,,,,0,0,0,0,0,24,24,203,142.89307355880737,,,,,,,,,,,,,,,,,,,,,,,,,,,,,,,,,,,,,,,,,,,,,,,,,,,,,,,,,,,,,,,,,,,,,,,,,,,,,,,,,94.14880299232979,145.22678957024124,165.21876000732934,165.21876000732934,140.30650895011132,92.67606929418795,2.1,2.12,-251,-268,0,-275,225,275,142.8768825531006,142.87695956230164,142.879896402359,142.89307355880737,143.03212594985962,143.03212594985962,143.03212594985962,143.03212594985962,143.03212594985962,143.03212594985962,143.03212594985962,144.06836009025574,2,1.1618108749389648,None,,,,,,,,,,,,,,,,,,1,1,2025-02-11_14h46.12.418,comp,2024.2.5,None,2025-02-11 14h46.21.291316 -0500,
25,25,0,filler_random,None,None,None,None,None,None,None,None,None,None,2,1.672114372253418,None,,,,,0,0,0,0,0,25,25,165,144.08672833442688,,,,,,,,,,,,,,,,,,,,,,,,,,,,,,,,,,,,,,,,,,,,,,,,,,,,,,,,,,,,,,,,,,,,,,,,,,,,,,,,,157.87698722531746,168.72515667577017,169.79352263271562,177.56449571204556,113.0190664241799,118.27220751755794,3.0,3.2,-269,-274,0,1,244,269,144.07020545005798,144.07029819488525,144.07345294952393,144.08672833442688,144.23323965072632,144.23323965072632,144.23323965072632,144.23323965072632,144.23323965072632,144.23323965072632,144.23323965072632,145.77372527122498,2,1.672114372253418,None,,,,,,,,,,,,,,,,,,1,1,2025-02-11_14h46.12.418,comp,2024.2.5,None,2025-02-11 14h46.21.291316 -0500,
26,26,0,critical,whd,45.0,2.1,lower,57.0,133.0,133.0,57.0,65.0,65.0,1,3.2913782596588135,None,,,,,0,0,0,0,0,26,26,36,145.7893512248993,,,,,,,,,,,,,,,,,,,,,,,,,,,,,,,,,,,,,,,,,,,,,,,,,,,,,,,,,,,,,,,,,,,,,,,,,,,,,,,,,57.0,133.0,133.0,57.0,65.0,65.0,2.1,2.12,-191,-283,0,-251,157,254,145.77540707588196,145.77554559707642,145.77886295318604,145.7893512248993,145.93358063697815,145.93358063697815,145.93358063697815,145.93358063697815,145.93358063697815,145.93358063697815,145.93358063697815,149.08318710327148,1,3.2913782596588135,None,,,,,,,,,,,,,,,,,,1,1,2025-02-11_14h46.12.418,comp,2024.2.5,None,2025-02-11 14h46.21.291316 -0500,
27,27,0,critical,wdh,45.0,4.0,lower,57.0,133.0,65.0,65.0,133.0,57.0,3,1.9477884769439697,None,,,,,0,0,0,0,0,27,27,76,149.09968066215515,,,,,,,,,,,,,,,,,,,,,,,,,,,,,,,,,,,,,,,,,,,,,,,,,,,,,,,,,,,,,,,,,,,,,,,,,,,,,,,,,57.0,133.0,65.0,65.0,133.0,57.0,4.0,4.2,-195,18,0,-265,157,-6,149.08468675613403,149.0847635269165,149.0881998538971,149.09968066215515,149.2499237060547,149.2499237060547,149.2499237060547,149.2499237060547,149.2499237060547,149.2499237060547,149.2499237060547,151.06678795814514,3,1.9477884769439697,None,,,,,,,,,,,,,,,,,,1,1,2025-02-11_14h46.12.418,comp,2024.2.5,None,2025-02-11 14h46.21.291316 -0500,
28,28,0,filler_square,None,None,None,None,None,None,None,None,None,None,2,1.3154470920562744,None,,,,,0,0,0,0,0,28,28,190,151.0834400653839,,,,,,,,,,,,,,,,,,,,,,,,,,,,,,,,,,,,,,,,,,,,,,,,,,,,,,,,,,,,,,,,,,,,,,,,,,,,,,,,,77.64911614396217,95.80885038869494,100.04315173592967,100.04315173592967,62.354819013155655,91.12531971006365,4.0,4.2,-194,16,0,-257,192,-5,151.06851196289062,151.06858587265015,151.07187867164612,151.0834400653839,151.23473191261292,151.23473191261292,151.23473191261292,151.23473191261292,151.23473191261292,151.23473191261292,151.23473191261292,152.40122413635254,2,1.3154470920562744,None,,,,,,,,,,,,,,,,,,1,1,2025-02-11_14h46.12.418,comp,2024.2.5,None,2025-02-11 14h46.21.291316 -0500,
29,29,0,critical,dwh,45.0,2.1,lower,65.0,65.0,57.0,133.0,133.0,57.0,2,1.221855640411377,None,,,,,0,0,0,0,0,29,29,4,152.4170274734497,,,,,,,,,,,,,,,,,,,,,,,,,,,,,,,,,,,,,,,,,,,,,,,,,,,,,,,,,,,,,,,,,,,,,,,,,,,,,,,,,65.0,65.0,57.0,133.0,133.0,57.0,2.1,2.11,-195,266,0,254,191,-268,152.40279912948608,152.4028766155243,152.4063196182251,152.4170274734497,152.56831002235413,152.56831002235413,152.56831002235413,152.56831002235413,152.56831002235413,152.56831002235413,152.56831002235413,153.64338445663452,2,1.221855640411377,None,,,,,,,,,,,,,,,,,,1,1,2025-02-11_14h46.12.418,comp,2024.2.5,None,2025-02-11 14h46.21.291316 -0500,
30,30,0,critical,hwd,60.0,1.0,upper,200.0,125.0,125.0,200.0,100.0,100.0,2,1.0730559825897217,None,,,,,0,0,0,0,0,30,30,103,153.6617410182953,,,,,,,,,,,,,,,,,,,,,,,,,,,,,,,,,,,,,,,,,,,,,,,,,,,,,,,,,,,,,,,,,,,,,,,,,,,,,,,,,200.0,125.0,125.0,200.0,100.0,100.0,1.0,1.2,-258,-16,0,17,246,16,153.64485239982605,153.64492774009705,153.647962808609,153.6617410182953,153.80647540092468,153.80647540092468,153.80647540092468,153.80647540092468,153.80647540092468,153.80647540092468,153.80647540092468,154.7415325641632,2,1.0730559825897217,None,,,,,,,,,,,,,,,,,,1,1,2025-02-11_14h46.12.418,comp,2024.2.5,None,2025-02-11 14h46.21.291316 -0500,
31,31,0,catch,None,None,None,None,None,None,None,None,None,None,1,0.9958312511444092,None,,,,,0,0,0,0,0,31,31,127,154.76303434371948,,,,,,,,,,,,,,,,,,,,,,,,,,,,,,,,,,,,,,,,,,,,,,,,,,,,,,,,,,,,,,,,,,,,,,,,,,,,,,,,,152,173,114,76,90,100,2.1,2.11,-220,268,0,254,184,-259,154.74368953704834,154.74377059936523,154.74729323387146,154.76303434371948,154.90277910232544,154.90277910232544,154.90277910232544,154.90277910232544,154.90277910232544,154.90277910232544,154.90277910232544,155.77681231498718,1,0.9958312511444092,None,,,,,,,,,,,,,,,,,,1,1,2025-02-11_14h46.12.418,comp,2024.2.5,None,2025-02-11 14h46.21.291316 -0500,
32,32,0,critical,hdw,45.0,2.1,upper,200.0,125.0,117.0,117.0,125.0,200.0,3,1.125598669052124,None,,,,,0,0,0,0,0,32,32,21,155.79416465759277,,,,,,,,,,,,,,,,,,,,,,,,,,,,,,,,,,,,,,,,,,,,,,,,,,,,,,,,,,,,,,,,,,,,,,,,,,,,,,,,,200.0,125.0,117.0,117.0,125.0,200.0,2.1,2.12,-217,-276,0,-288,254,254,155.7783546447754,155.7784459590912,155.78146505355835,155.79416465759277,155.93515801429749,155.93515801429749,155.93515801429749,155.93515801429749,155.93515801429749,155.93515801429749,155.93515801429749,156.9254925251007,3,1.125598669052124,None,,,,,,,,,,,,,,,,,,1,1,2025-02-11_14h46.12.418,comp,2024.2.5,None,2025-02-11 14h46.21.291316 -0500,
33,33,0,critical,wdh,60.0,1.0,upper,125.0,200.0,100.0,100.0,200.0,125.0,1,1.3166768550872803,None,,,,,0,0,0,0,0,33,33,79,156.94592356681824,,,,,,,,,,,,,,,,,,,,,,,,,,,,,,,,,,,,,,,,,,,,,,,,,,,,,,,,,,,,,,,,,,,,,,,,,,,,,,,,,125.0,200.0,100.0,100.0,200.0,125.0,1.0,1.3,234,-260,480,-275,688,-288,156.92714095115662,156.9272222518921,156.93069124221802,156.94592356681824,157.08505201339722,157.08505201339722,157.08505201339722,157.08505201339722,157.08505201339722,157.08505201339722,157.08505201339722,158.26470136642456,1,1.3166768550872803,None,,,,,,,,,,,,,,,,,,1,1,2025-02-11_14h46.12.418,comp,2024.2.5,None,2025-02-11 14h46.21.291316 -0500,
34,34,0,filler_square,None,None,None,None,None,None,None,None,None,None,2,1.065455436706543,None,,,,,0,0,0,0,0,34,34,191,158.2858452796936,,,,,,,,,,,,,,,,,,,,,,,,,,,,,,,,,,,,,,,,,,,,,,,,,,,,,,,,,,,,,,,,,,,,,,,,,,,,,,,,,58.77943771007025,58.39518290339185,61.09434598232241,61.09434598232241,57.0854021777347,57.36256029971671,3.0,3.1,-156,281,0,1,155,-281,158.26664924621582,158.26672840118408,158.27006435394287,158.2858452796936,158.42116808891296,158.42116808891296,158.42116808891296,158.42116808891296,158.42116808891296,158.42116808891296,158.42116808891296,159.35581302642822,2,1.065455436706543,None,,,,,,,,,,,,,,,,,,1,1,2025-02-11_14h46.12.418,comp,2024.2.5,None,2025-02-11 14h46.21.291316 -0500,
35,35,0,critical,wdh,60.0,3.0,upper,125.0,200.0,100.0,100.0,200.0,125.0,1,1.7794883251190186,None,,,,,0,0,0,0,0,35,35,81,159.37196373939514,,,,,,,,,,,,,,,,,,,,,,,,,,,,,,,,,,,,,,,,,,,,,,,,,,,,,,,,,,,,,,,,,,,,,,,,,,,,,,,,,125.0,200.0,100.0,100.0,200.0,125.0,3.0,3.1,-246,276,0,14,208,-254,159.35751605033875,159.35762071609497,159.36113786697388,159.37196373939514,159.52083277702332,159.52083277702332,159.52083277702332,159.52083277702332,159.52083277702332,159.52083277702332,159.52083277702332,161.1550281047821,1,1.7794883251190186,None,,,,,,,,,,,,,,,,,,1,1,2025-02-11_14h46.12.418,comp,2024.2.5,None,2025-02-11 14h46.21.291316 -0500,
36,36,0,critical,whd,60.0,2.1,upper,125.0,200.0,200.0,125.0,100.0,100.0,2,0.979299783706665,None,,,,,0,0,0,0,0,36,36,39,161.17114901542664,,,,,,,,,,,,,,,,,,,,,,,,,,,,,,,,,,,,,,,,,,,,,,,,,,,,,,,,,,,,,,,,,,,,,,,,,,,,,,,,,125.0,200.0,200.0,125.0,100.0,100.0,2.1,2.11,-258,289,0,284,208,-256,161.15660667419434,161.15668272972107,161.16026067733765,161.17114901542664,161.32082676887512,161.32082676887512,161.32082676887512,161.32082676887512,161.32082676887512,161.32082676887512,161.32082676887512,162.15423130989075,2,0.979299783706665,None,,,,,,,,,,,,,,,,,,1,1,2025-02-11_14h46.12.418,comp,2024.2.5,None,2025-02-11 14h46.21.291316 -0500,
37,37,0,critical,whd,45.0,1.0,lower,57.0,133.0,133.0,57.0,65.0,65.0,2,0.8606619834899902,None,,,,,0,0,0,0,0,37,37,84,162.17034077644348,,,,,,,,,,,,,,,,,,,,,,,,,,,,,,,,,,,,,,,,,,,,,,,,,,,,,,,,,,,,,,,,,,,,,,,,,,,,,,,,,57.0,133.0,133.0,57.0,65.0,65.0,1.0,1.2,-191,17,0,2,157,15,162.15573596954346,162.15581345558167,162.15940237045288,162.17034077644348,162.32403349876404,162.32403349876404,162.32403349876404,162.32403349876404,162.32403349876404,162.32403349876404,162.32403349876404,163.03755164146423,2,0.8606619834899902,None,,,,,,,,,,,,,,,,,,1,1,2025-02-11_14h46.12.418,comp,2024.2.5,None,2025-02-11 14h46.21.291316 -0500,
38,38,0,critical,wdh,45.0,1.0,upper,125.0,200.0,117.0,117.0,200.0,125.0,3,1.0152413845062256,None,,,,,0,0,0,0,0,38,38,73,163.05523824691772,,,,,,,,,,,,,,,,,,,,,,,,,,,,,,,,,,,,,,,,,,,,,,,,,,,,,,,,,,,,,,,,,,,,,,,,,,,,,,,,,125.0,200.0,117.0,117.0,200.0,125.0,1.0,1.2,-254,-12,0,-2,217,-19,163.03904032707214,163.03914141654968,163.0422010421753,163.05523824691772,163.21141386032104,163.21141386032104,163.21141386032104,163.21141386032104,163.21141386032104,163.21141386032104,163.21141386032104,164.07276320457458,3,1.0152413845062256,None,,,,,,,,,,,,,,,,,,1,1,2025-02-11_14h46.12.418,comp,2024.2.5,None,2025-02-11 14h46.21.291316 -0500,
39,39,0,critical,dhw,60.0,3.0,upper,100.0,100.0,200.0,125.0,125.0,200.0,2,0.8833024501800537,None,,,,,0,0,0,0,0,39,39,57,164.09100222587585,,,,,,,,,,,,,,,,,,,,,,,,,,,,,,,,,,,,,,,,,,,,,,,,,,,,,,,,,,,,,,,,,,,,,,,,,,,,,,,,,100.0,100.0,200.0,125.0,125.0,200.0,3.0,3.2,-208,-282,0,-11,258,278,164.07446146011353,164.07458901405334,164.07766723632812,164.09100222587585,164.23893976211548,164.23893976211548,164.23893976211548,164.23893976211548,164.23893976211548,164.23893976211548,164.23893976211548,164.98988366127014,2,0.8833024501800537,None,,,,,,,,,,,,,,,,,,1,1,2025-02-11_14h46.12.418,comp,2024.2.5,None,2025-02-11 14h46.21.291316 -0500,
40,40,0,critical,whd,45.0,1.0,upper,125.0,200.0,200.0,125.0,117.0,117.0,2,1.0641844272613525,None,,,,,0,0,0,0,0,40,40,85,165.00604915618896,,,,,,,,,,,,,,,,,,,,,,,,,,,,,,,,,,,,,,,,,,,,,,,,,,,,,,,,,,,,,,,,,,,,,,,,,,,,,,,,,125.0,200.0,200.0,125.0,117.0,117.0,1.0,1.3,222,-283,480,-276,697,-279,164.9916844367981,164.99176836013794,164.99575233459473,165.00604915618896,165.14281177520752,165.14281177520752,165.14281177520752,165.14281177520752,165.14281177520752,165.14281177520752,165.14281177520752,166.08738565444946,2,1.0641844272613525,None,,,,,,,,,,,,,,,,,,1,1,2025-02-11_14h46.12.418,comp,2024.2.5,None,2025-02-11 14h46.21.291316 -0500,
41,41,0,filler_square,None,None,None,None,None,None,None,None,None,None,2,0.8466100692749023,None,,,,,0,0,0,0,0,41,41,177,166.10435605049133,,,,,,,,,,,,,,,,,,,,,,,,,,,,,,,,,,,,,,,,,,,,,,,,,,,,,,,,,,,,,,,,,,,,,,,,,,,,,,,,,117.4224778033627,74.347270030618,142.73576279048189,142.73576279048189,69.76789829733168,95.05608773621319,4.0,4.1,-205,-266,0,20,215,-283,166.089417219162,166.08949637413025,166.0929298400879,166.10435605049133,166.26016855239868,166.26016855239868,166.26016855239868,166.26016855239868,166.26016855239868,166.26016855239868,166.26016855239868,166.9551649093628,2,0.8466100692749023,None,,,,,,,,,,,,,,,,,,1,1,2025-02-11_14h46.12.418,comp,2024.2.5,None,2025-02-11 14h46.21.291316 -0500,
42,42,0,critical,hdw,60.0,3.0,lower,133.0,57.0,55.0,55.0,57.0,133.0,3,0.858773946762085,None,,,,,0,0,0,0,0,42,42,116,166.9717833995819,,,,,,,,,,,,,,,,,,,,,,,,,,,,,,,,,,,,,,,,,,,,,,,,,,,,,,,,,,,,,,,,,,,,,,,,,,,,,,,,,133.0,57.0,55.0,55.0,57.0,133.0,3.0,3.2,-152,-262,0,18,190,253,166.95683979988098,166.9569308757782,166.96057200431824,166.9717833995819,167.12521743774414,167.12521743774414,167.12521743774414,167.12521743774414,167.12521743774414,167.12521743774414,167.12521743774414,167.84570574760437,3,0.858773946762085,None,,,,,,,,,,,,,,,,,,1,1,2025-02-11_14h46.12.418,comp,2024.2.5,None,2025-02-11 14h46.21.291316 -0500,
43,43,0,filler_random,None,None,None,None,None,None,None,None,None,None,1,1.1493234634399414,None,,,,,0,0,0,0,0,43,43,164,167.86577367782593,,,,,,,,,,,,,,,,,,,,,,,,,,,,,,,,,,,,,,,,,,,,,,,,,,,,,,,,,,,,,,,,,,,,,,,,,,,,,,,,,199.5862450403598,179.3220948602028,127.43847651601727,96.1073454951586,142.94248838606893,173.0641416466147,2.1,2.12,-234,-282,0,-277,231,287,167.84753370285034,167.8476254940033,167.85091400146484,167.86577367782593,168.0041582584381,168.0041582584381,168.0041582584381,168.0041582584381,168.0041582584381,168.0041582584381,168.0041582584381,169.02187514305115,1,1.1493234634399414,None,,,,,,,,,,,,,,,,,,1,1,2025-02-11_14h46.12.418,comp,2024.2.5,None,2025-02-11 14h46.21.291316 -0500,
44,44,0,critical,wdh,45.0,4.0,upper,125.0,200.0,117.0,117.0,200.0,125.0,3,1.192063331604004,None,,,,,0,0,0,0,0,44,44,77,169.03816556930542,,,,,,,,,,,,,,,,,,,,,,,,,,,,,,,,,,,,,,,,,,,,,,,,,,,,,,,,,,,,,,,,,,,,,,,,,,,,,,,,,125.0,200.0,117.0,117.0,200.0,125.0,4.0,4.1,-254,-253,0,-18,217,-278,169.0233907699585,169.02346658706665,169.02658700942993,169.03816556930542,169.19486904144287,169.19486904144287,169.19486904144287,169.19486904144287,169.19486904144287,169.19486904144287,169.19486904144287,170.24189519882202,3,1.192063331604004,None,,,,,,,,,,,,,,,,,,1,1,2025-02-11_14h46.12.418,comp,2024.2.5,None,2025-02-11 14h46.21.291316 -0500,
45,45,0,filler_square,None,None,None,None,None,None,None,None,None,None,1,0.9892303943634033,None,,,,,0,0,0,0,0,45,45,184,170.25768375396729,,,,,,,,,,,,,,,,,,,,,,,,,,,,,,,,,,,,,,,,,,,,,,,,,,,,,,,,,,,,,,,,,,,,,,,,,,,,,,,,,157.1253588895483,157.1253588895483,64.45222310682901,86.68436528101925,146.83863494331138,92.5186963666714,1.0,1.3,262,-250,480,-259,666,-275,170.24393606185913,170.24401950836182,170.2470371723175,170.25768375396729,170.40580654144287,170.40580654144287,170.40580654144287,170.40580654144287,170.40580654144287,170.40580654144287,170.40580654144287,171.25710225105286,1,0.9892303943634033,None,,,,,,,,,,,,,,,,,,1,1,2025-02-11_14h46.12.418,comp,2024.2.5,None,2025-02-11 14h46.21.291316 -0500,
46,46,0,critical,wdh,45.0,2.1,upper,125.0,200.0,117.0,117.0,200.0,125.0,1,1.08561110496521,None,,,,,0,0,0,0,0,46,46,33,171.2731273174286,,,,,,,,,,,,,,,,,,,,,,,,,,,,,,,,,,,,,,,,,,,,,,,,,,,,,,,,,,,,,,,,,,,,,,,,,,,,,,,,,125.0,200.0,117.0,117.0,200.0,125.0,2.1,2.11,-254,251,0,273,217,-276,171.2586669921875,171.25874710083008,171.26232600212097,171.2731273174286,171.43029356002808,171.43029356002808,171.43029356002808,171.43029356002808,171.43029356002808,171.43029356002808,171.43029356002808,172.37322473526,1,1.08561110496521,None,,,,,,,,,,,,,,,,,,1,1,2025-02-11_14h46.12.418,comp,2024.2.5,None,2025-02-11 14h46.21.291316 -0500,
47,47,0,filler_random,None,None,None,None,None,None,None,None,None,None,2,0.8811275959014893,None,,,,,0,0,0,0,0,47,47,138,172.38992977142334,,,,,,,,,,,,,,,,,,,,,,,,,,,,,,,,,,,,,,,,,,,,,,,,,,,,,,,,,,,,,,,,,,,,,,,,,,,,,,,,,111.05867496847318,76.68492651467945,119.44550830442107,148.13704341132677,154.73879177506734,82.52882837946134,1.0,1.3,272,-259,480,-260,691,-271,172.3751745223999,172.37525343894958,172.37864422798157,172.38992977142334,172.5405580997467,172.5405580997467,172.5405580997467,172.5405580997467,172.5405580997467,172.5405580997467,172.5405580997467,173.2751543521881,2,0.8811275959014893,None,,,,,,,,,,,,,,,,,,1,1,2025-02-11_14h46.12.418,comp,2024.2.5,None,2025-02-11 14h46.21.291316 -0500,
48,48,0,filler_random,None,None,None,None,None,None,None,None,None,None,3,1.0421879291534424,None,,,,,0,0,0,0,0,48,48,143,173.29191374778748,,,,,,,,,,,,,,,,,,,,,,,,,,,,,,,,,,,,,,,,,,,,,,,,,,,,,,,,,,,,,,,,,,,,,,,,,,,,,,,,,98.41479548302163,96.43424838066399,194.87172943088706,133.05415069810238,118.23242491319982,168.068312426175,1.0,1.1,-691,271,-480,270,-233,260,173.2771599292755,173.27728867530823,173.28111624717712,173.29191374778748,173.43069052696228,173.43069052696228,173.43069052696228,173.43069052696228,173.43069052696228,173.43069052696228,173.43069052696228,174.35140657424927,3,1.0421879291534424,None,,,,,,,,,,,,,,,,,,1,1,2025-02-11_14h46.12.418,comp,2024.2.5,None,2025-02-11 14h46.21.291316 -0500,
49,49,0,critical,dwh,45.0,4.0,upper,117.0,117.0,125.0,200.0,200.0,125.0,2,1.2855644226074219,None,,,,,0,0,0,0,0,49,49,65,174.36901450157166,,,,,,,,,,,,,,,,,,,,,,,,,,,,,,,,,,,,,,,,,,,,,,,,,,,,,,,,,,,,,,,,,,,,,,,,,,,,,,,,,117.0,117.0,125.0,200.0,200.0,125.0,4.0,4.1,-254,-263,0,-6,258,-275,174.35300302505493,174.35311150550842,174.35650491714478,174.36901450157166,174.50722980499268,174.50722980499268,174.50722980499268,174.50722980499268,174.50722980499268,174.50722980499268,174.50722980499268,175.67400741577148,2,1.2855644226074219,None,,,,,,,,,,,,,,,,,,1,1,2025-02-11_14h46.12.418,comp,2024.2.5,None,2025-02-11 14h46.21.291316 -0500,
50,50,0,critical,whd,60.0,1.0,upper,125.0,200.0,200.0,125.0,100.0,100.0,2,0.8273639678955078,None,,,,,0,0,0,0,0,50,50,91,175.6911985874176,,,,,,,,,,,,,,,,,,,,,,,,,,,,,,,,,,,,,,,,,,,,,,,,,,,,,,,,,,,,,,,,,,,,,,,,,,,,,,,,,125.0,200.0,200.0,125.0,100.0,100.0,1.0,1.1,-738,285,-480,287,-272,275,175.67554259300232,175.67562341690063,175.6788899898529,175.6911985874176,175.8396599292755,175.8396599292755,175.8396599292755,175.8396599292755,175.8396599292755,175.8396599292755,175.8396599292755,176.52862215042114,2,0.8273639678955078,None,,,,,,,,,,,,,,,,,,1,1,2025-02-11_14h46.12.418,comp,2024.2.5,None,2025-02-11 14h46.21.291316 -0500,
51,51,0,filler_random,None,None,None,None,None,None,None,None,None,None,2,1.315122127532959,None,,,,,0,0,0,0,0,51,51,137,176.54695296287537,,,,,,,,,,,,,,,,,,,,,,,,,,,,,,,,,,,,,,,,,,,,,,,,,,,,,,,,,,,,,,,,,,,,,,,,,,,,,,,,,170.08406412368032,180.9406197351933,161.63195386191632,187.25072147209144,126.28661912440971,152.98894526703504,4.0,4.2,-280,10,0,-278,266,0,176.5305516719818,176.53064632415771,176.53401231765747,176.54695296287537,176.6923544406891,176.6923544406891,176.6923544406891,176.6923544406891,176.6923544406891,176.6923544406891,176.6923544406891,177.87449741363525,2,1.315122127532959,None,,,,,,,,,,,,,,,,,,1,1,2025-02-11_14h46.12.418,comp,2024.2.5,None,2025-02-11 14h46.21.291316 -0500,
52,52,0,critical,wdh,60.0,2.1,lower,57.0,133.0,55.0,55.0,133.0,57.0,3,1.3313415050506592,None,,,,,0,0,0,0,0,52,52,34,177.89063549041748,,,,,,,,,,,,,,,,,,,,,,,,,,,,,,,,,,,,,,,,,,,,,,,,,,,,,,,,,,,,,,,,,,,,,,,,,,,,,,,,,57.0,133.0,55.0,55.0,133.0,57.0,2.1,2.11,-190,271,0,264,152,-257,177.87602615356445,177.87613797187805,177.87940669059753,177.89063549041748,178.02918672561646,178.02918672561646,178.02918672561646,178.02918672561646,178.02918672561646,178.02918672561646,178.02918672561646,179.22637820243835,3,1.3313415050506592,None,,,,,,,,,,,,,,,,,,1,1,2025-02-11_14h46.12.418,comp,2024.2.5,None,2025-02-11 14h46.21.291316 -0500,
53,53,0,filler_random,None,None,None,None,None,None,None,None,None,None,3,1.0909068584442139,None,,,,,0,0,0,0,0,53,53,161,179.2429904937744,,,,,,,,,,,,,,,,,,,,,,,,,,,,,,,,,,,,,,,,,,,,,,,,,,,,,,,,,,,,,,,,,,,,,,,,,,,,,,,,,106.75553257252224,94.55402025789762,95.92660769926155,113.13902853103008,124.04175314964887,108.0758439183993,1.0,1.2,-200,-10,0,3,207,-1,179.22814846038818,179.22823071479797,179.23235726356506,179.2429904937744,179.3925440311432,179.3925440311432,179.3925440311432,179.3925440311432,179.3925440311432,179.3925440311432,179.3925440311432,180.34388971328735,3,1.0909068584442139,None,,,,,,,,,,,,,,,,,,1,1,2025-02-11_14h46.12.418,comp,2024.2.5,None,2025-02-11 14h46.21.291316 -0500,
54,54,0,critical,dhw,60.0,2.1,upper,100.0,100.0,200.0,125.0,125.0,200.0,2,1.0544698238372803,None,,,,,0,0,0,0,0,54,54,3,180.3603117465973,,,,,,,,,,,,,,,,,,,,,,,,,,,,,,,,,,,,,,,,,,,,,,,,,,,,,,,,,,,,,,,,,,,,,,,,,,,,,,,,,100.0,100.0,200.0,125.0,125.0,200.0,2.1,2.11,-208,285,0,277,258,-264,180.3453664779663,180.34544038772583,180.3496277332306,180.3603117465973,180.51602268218994,180.51602268218994,180.51602268218994,180.51602268218994,180.51602268218994,180.51602268218994,180.51602268218994,181.42635345458984,2,1.0544698238372803,None,,,,,,,,,,,,,,,,,,1,1,2025-02-11_14h46.12.418,comp,2024.2.5,None,2025-02-11 14h46.21.291316 -0500,
55,55,0,critical,hwd,60.0,3.0,upper,200.0,125.0,125.0,200.0,100.0,100.0,2,1.0680110454559326,None,,,,,0,0,0,0,0,55,55,105,181.4426817893982,,,,,,,,,,,,,,,,,,,,,,,,,,,,,,,,,,,,,,,,,,,,,,,,,,,,,,,,,,,,,,,,,,,,,,,,,,,,,,,,,200.0,125.0,125.0,200.0,100.0,100.0,3.0,3.2,-258,-282,0,9,246,281,181.427973985672,181.42805075645447,181.4316246509552,181.4426817893982,181.5972228050232,181.5972228050232,181.5972228050232,181.5972228050232,181.5972228050232,181.5972228050232,181.5972228050232,182.51781606674194,2,1.0680110454559326,None,,,,,,,,,,,,,,,,,,1,1,2025-02-11_14h46.12.418,comp,2024.2.5,None,2025-02-11 14h46.21.291316 -0500,
56,56,0,critical,whd,45.0,4.0,lower,57.0,133.0,133.0,57.0,65.0,65.0,2,1.006030797958374,None,,,,,0,0,0,0,0,56,56,88,182.53603148460388,,,,,,,,,,,,,,,,,,,,,,,,,,,,,,,,,,,,,,,,,,,,,,,,,,,,,,,,,,,,,,,,,,,,,,,,,,,,,,,,,57.0,133.0,133.0,57.0,65.0,65.0,4.0,4.1,-191,-275,0,2,157,-273,182.5196967124939,182.51977467536926,182.52275466918945,182.53603148460388,182.67681050300598,182.67681050300598,182.67681050300598,182.67681050300598,182.67681050300598,182.67681050300598,182.67681050300598,183.55871200561523,2,1.006030797958374,None,,,,,,,,,,,,,,,,,,1,1,2025-02-11_14h46.12.418,comp,2024.2.5,None,2025-02-11 14h46.21.291316 -0500,
57,57,0,filler_random,None,None,None,None,None,None,None,None,None,None,2,0.9114620685577393,None,,,,,0,0,0,0,0,57,57,153,183.57506728172302,,,,,,,,,,,,,,,,,,,,,,,,,,,,,,,,,,,,,,,,,,,,,,,,,,,,,,,,,,,,,,,,,,,,,,,,,,,,,,,,,60.260295741903306,73.66797794493773,70.31101420452029,190.04389613467447,60.08530529443509,90.4623583229702,1.0,1.2,-228,-8,0,19,236,15,183.5604317188263,183.5605070590973,183.56381821632385,183.57506728172302,183.7139868736267,183.7139868736267,183.7139868736267,183.7139868736267,183.7139868736267,183.7139868736267,183.7139868736267,184.4923586845398,2,0.9114620685577393,None,,,,,,,,,,,,,,,,,,1,1,2025-02-11_14h46.12.418,comp,2024.2.5,None,2025-02-11 14h46.21.291316 -0500,
58,58,0,critical,hdw,60.0,4.0,upper,200.0,125.0,100.0,100.0,125.0,200.0,3,1.4011781215667725,None,,,,,0,0,0,0,0,58,58,119,184.50864624977112,,,,,,,,,,,,,,,,,,,,,,,,,,,,,,,,,,,,,,,,,,,,,,,,,,,,,,,,,,,,,,,,,,,,,,,,,,,,,,,,,200.0,125.0,100.0,100.0,125.0,200.0,4.0,4.1,-208,-250,0,15,246,-274,184.4939248561859,184.4940059185028,184.49717712402344,184.50864624977112,184.6443977355957,184.6443977355957,184.6443977355957,184.6443977355957,184.6443977355957,184.6443977355957,184.6443977355957,185.91205406188965,3,1.4011781215667725,None,,,,,,,,,,,,,,,,,,1,1,2025-02-11_14h46.12.418,comp,2024.2.5,None,2025-02-11 14h46.21.291316 -0500,
59,59,0,critical,dhw,60.0,2.1,upper,100.0,100.0,200.0,125.0,125.0,200.0,2,1.4218714237213135,None,,,,,0,0,0,0,0,59,59,27,185.9278793334961,,,,,,,,,,,,,,,,,,,,,,,,,,,,,,,,,,,,,,,,,,,,,,,,,,,,,,,,,,,,,,,,,,,,,,,,,,,,,,,,,100.0,100.0,200.0,125.0,125.0,200.0,2.1,2.12,-208,-278,0,-285,258,260,185.9136073589325,185.91368579864502,185.91718459129333,185.9278793334961,186.0763349533081,186.0763349533081,186.0763349533081,186.0763349533081,186.0763349533081,186.0763349533081,186.0763349533081,187.3597550392151,2,1.4218714237213135,None,,,,,,,,,,,,,,,,,,1,1,2025-02-11_14h46.12.418,comp,2024.2.5,None,2025-02-11 14h46.21.291316 -0500,
60,60,0,critical,dhw,60.0,2.1,lower,55.0,55.0,133.0,57.0,57.0,133.0,2,1.1995062828063965,None,,,,,0,0,0,0,0,60,60,2,187.37549304962158,,,,,,,,,,,,,,,,,,,,,,,,,,,,,,,,,,,,,,,,,,,,,,,,,,,,,,,,,,,,,,,,,,,,,,,,,,,,,,,,,55.0,55.0,133.0,57.0,57.0,133.0,2.1,2.11,-152,284,0,290,191,-271,187.3612699508667,187.36134910583496,187.36444211006165,187.37549304962158,187.52719402313232,187.52719402313232,187.52719402313232,187.52719402313232,187.52719402313232,187.52719402313232,187.52719402313232,188.5773468017578,2,1.1995062828063965,None,,,,,,,,,,,,,,,,,,1,1,2025-02-11_14h46.12.418,comp,2024.2.5,None,2025-02-11 14h46.21.291316 -0500,
61,61,0,filler_random,None,None,None,None,None,None,None,None,None,None,2,0.996678352355957,None,,,,,0,0,0,0,0,61,61,151,188.59414339065552,,,,,,,,,,,,,,,,,,,,,,,,,,,,,,,,,,,,,,,,,,,,,,,,,,,,,,,,,,,,,,,,,,,,,,,,,,,,,,,,,76.43600880034131,60.113782544407485,112.24348247968061,126.88027991948812,138.2427578122602,73.82807617555076,2.1,2.11,-189,259,0,262,196,-279,188.57903170585632,188.57913064956665,188.58227610588074,188.59414339065552,188.7433807849884,188.7433807849884,188.7433807849884,188.7433807849884,188.7433807849884,188.7433807849884,188.7433807849884,189.59826016426086,2,0.996678352355957,None,,,,,,,,,,,,,,,,,,1,1,2025-02-11_14h46.12.418,comp,2024.2.5,None,2025-02-11 14h46.21.291316 -0500,
62,62,0,critical,hwd,45.0,1.0,lower,133.0,57.0,57.0,133.0,65.0,65.0,2,0.991265058517456,None,,,,,0,0,0,0,0,62,62,96,189.6145215034485,,,,,,,,,,,,,,,,,,,,,,,,,,,,,,,,,,,,,,,,,,,,,,,,,,,,,,,,,,,,,,,,,,,,,,,,,,,,,,,,,133.0,57.0,57.0,133.0,65.0,65.0,1.0,1.2,-191,18,0,18,195,2,189.59990620613098,189.5999836921692,189.60390520095825,189.6145215034485,189.7698791027069,189.7698791027069,189.7698791027069,189.7698791027069,189.7698791027069,189.7698791027069,189.7698791027069,190.6238272190094,2,0.991265058517456,None,,,,,,,,,,,,,,,,,,1,1,2025-02-11_14h46.12.418,comp,2024.2.5,None,2025-02-11 14h46.21.291316 -0500,
63,63,0,critical,dwh,45.0,3.0,upper,117.0,117.0,125.0,200.0,200.0,125.0,3,1.1467695236206055,None,,,,,0,0,0,0,0,63,63,63,190.6436104774475,,,,,,,,,,,,,,,,,,,,,,,,,,,,,,,,,,,,,,,,,,,,,,,,,,,,,,,,,,,,,,,,,,,,,,,,,,,,,,,,,117.0,117.0,125.0,200.0,200.0,125.0,3.0,3.1,-254,270,0,-15,258,-266,190.62536525726318,190.62544012069702,190.6284098625183,190.6436104774475,190.77898025512695,190.77898025512695,190.77898025512695,190.77898025512695,190.77898025512695,190.77898025512695,190.77898025512695,191.7965705394745,3,1.1467695236206055,None,,,,,,,,,,,,,,,,,,1,1,2025-02-11_14h46.12.418,comp,2024.2.5,None,2025-02-11 14h46.21.291316 -0500,
64,64,0,filler_square,None,None,None,None,None,None,None,None,None,None,3,1.6873059272766113,None,,,,,0,0,0,0,0,64,64,198,191.8157660961151,,,,,,,,,,,,,,,,,,,,,,,,,,,,,,,,,,,,,,,,,,,,,,,,,,,,,,,,,,,,,,,,,,,,,,,,,,,,,,,,,57.788187154783955,59.75468937113837,62.41808377474354,62.41808377474354,62.29897347101132,62.324748618099306,4.0,4.1,-157,-266,0,-12,158,-283,191.79838609695435,191.7984619140625,191.80173349380493,191.8157660961151,191.9644365310669,191.9644365310669,191.9644365310669,191.9644365310669,191.9644365310669,191.9644365310669,191.9644365310669,193.5133683681488,3,1.6873059272766113,None,,,,,,,,,,,,,,,,,,1,1,2025-02-11_14h46.12.418,comp,2024.2.5,None,2025-02-11 14h46.21.291316 -0500,
65,65,0,filler_square,None,None,None,None,None,None,None,None,None,None,2,1.419541835784912,None,,,,,0,0,0,0,0,65,65,178,193.53005361557007,,,,,,,,,,,,,,,,,,,,,,,,,,,,,,,,,,,,,,,,,,,,,,,,,,,,,,,,,,,,,,,,,,,,,,,,,,,,,,,,,127.61693829294504,154.55596054271953,184.75691641046927,184.75691641046927,74.54532143947469,178.80966265181758,2.2,2.21,-266,-257,0,262,278,286,193.51519560813904,193.51527428627014,193.51943278312683,193.53005361557007,193.68031668663025,193.68031668663025,193.68031668663025,193.68031668663025,193.68031668663025,193.68031668663025,193.68031668663025,194.96469402313232,2,1.419541835784912,None,,,,,,,,,,,,,,,,,,1,1,2025-02-11_14h46.12.418,comp,2024.2.5,None,2025-02-11 14h46.21.291316 -0500,
66,66,0,filler_square,None,None,None,None,None,None,None,None,None,None,1,1.095574140548706,None,,,,,0,0,0,0,0,66,66,176,194.98284339904785,,,,,,,,,,,,,,,,,,,,,,,,,,,,,,,,,,,,,,,,,,,,,,,,,,,,,,,,,,,,,,,,,,,,,,,,,,,,,,,,,162.40666449405046,162.40666449405046,94.30381450462295,112.73737767853709,108.50220520061083,66.50948719688583,2.2,2.21,-234,-257,0,283,186,256,194.96665477752686,194.96673011779785,194.97004461288452,194.98284339904785,195.13105869293213,195.13105869293213,195.13105869293213,195.13105869293213,195.13105869293213,195.13105869293213,195.13105869293213,196.08601641654968,1,1.095574140548706,None,,,,,,,,,,,,,,,,,,1,1,2025-02-11_14h46.12.418,comp,2024.2.5,None,2025-02-11 14h46.21.291316 -0500,
67,67,0,filler_random,None,None,None,None,None,None,None,None,None,None,1,1.5359899997711182,None,,,,,0,0,0,0,0,67,67,146,196.10241317749023,,,,,,,,,,,,,,,,,,,,,,,,,,,,,,,,,,,,,,,,,,,,,,,,,,,,,,,,,,,,,,,,,,,,,,,,,,,,,,,,,143.38036843460048,168.1235556450975,63.059981125150436,189.37849459165793,118.88593977965489,113.15964454993893,2.1,2.11,-275,270,0,285,247,-287,196.08785319328308,196.0879306793213,196.09157967567444,196.10241317749023,196.24580311775208,196.24580311775208,196.24580311775208,196.24580311775208,196.24580311775208,196.24580311775208,196.24580311775208,197.64673733711243,1,1.5359899997711182,None,,,,,,,,,,,,,,,,,,1,1,2025-02-11_14h46.12.418,comp,2024.2.5,None,2025-02-11 14h46.21.291316 -0500,
68,68,0,critical,dwh,60.0,1.0,lower,55.0,55.0,57.0,133.0,133.0,57.0,2,1.6285693645477295,None,,,,,0,0,0,0,0,68,68,66,197.6651496887207,,,,,,,,,,,,,,,,,,,,,,,,,,,,,,,,,,,,,,,,,,,,,,,,,,,,,,,,,,,,,,,,,,,,,,,,,,,,,,,,,55.0,55.0,57.0,133.0,133.0,57.0,1.0,1.2,-190,9,0,-10,191,6,197.64824724197388,197.64832758903503,197.65159940719604,197.6651496887207,197.8028643131256,197.8028643131256,197.8028643131256,197.8028643131256,197.8028643131256,197.8028643131256,197.8028643131256,199.2989764213562,2,1.6285693645477295,None,,,,,,,,,,,,,,,,,,1,1,2025-02-11_14h46.12.418,comp,2024.2.5,None,2025-02-11 14h46.21.291316 -0500,
69,69,0,critical,wdh,60.0,2.1,lower,57.0,133.0,55.0,55.0,133.0,57.0,3,2.2508463859558105,None,,,,,0,0,0,0,0,69,69,10,199.31488156318665,,,,,,,,,,,,,,,,,,,,,,,,,,,,,,,,,,,,,,,,,,,,,,,,,,,,,,,,,,,,,,,,,,,,,,,,,,,,,,,,,57.0,133.0,55.0,55.0,133.0,57.0,2.1,2.12,-190,-272,0,-260,152,258,199.30058789253235,199.30066776275635,199.30411553382874,199.31488156318665,199.47448444366455,199.47448444366455,199.47448444366455,199.47448444366455,199.47448444366455,199.47448444366455,199.47448444366455,201.56967520713806,3,2.2508463859558105,None,,,,,,,,,,,,,,,,,,1,1,2025-02-11_14h46.12.418,comp,2024.2.5,None,2025-02-11 14h46.21.291316 -0500,
70,70,0,filler_random,None,None,None,None,None,None,None,None,None,None,3,1.3465361595153809,None,,,,,0,0,0,0,0,70,70,148,201.5868639945984,,,,,,,,,,,,,,,,,,,,,,,,,,,,,,,,,,,,,,,,,,,,,,,,,,,,,,,,,,,,,,,,,,,,,,,,,,,,,,,,,144.0945599488678,131.58782968692753,129.00208619981433,84.75621699504106,198.0910320614242,191.41571819261424,1.0,1.3,276,-254,480,-281,714,-274,201.5713849067688,201.57146430015564,201.57462573051453,201.5868639945984,201.73163151741028,201.73163151741028,201.73163151741028,201.73163151741028,201.73163151741028,201.73163151741028,201.73163151741028,202.94928526878357,3,1.3465361595153809,None,,,,,,,,,,,,,,,,,,1,1,2025-02-11_14h46.12.418,comp,2024.2.5,None,2025-02-11 14h46.21.291316 -0500,
71,71,0,critical,dhw,60.0,1.0,lower,55.0,55.0,133.0,57.0,57.0,133.0,3,1.9514577388763428,None,,,,,0,0,0,0,0,71,71,54,202.96594142913818,,,,,,,,,,,,,,,,,,,,,,,,,,,,,,,,,,,,,,,,,,,,,,,,,,,,,,,,,,,,,,,,,,,,,,,,,,,,,,,,,55.0,55.0,133.0,57.0,57.0,133.0,1.0,1.1,-632,259,-480,263,-289,263,202.95093178749084,202.9510624408722,202.95473957061768,202.96594142913818,203.1147768497467,203.1147768497467,203.1147768497467,203.1147768497467,203.1147768497467,203.1147768497467,203.1147768497467,204.93353509902954,3,1.9514577388763428,None,,,,,,,,,,,,,,,,,,1,1,2025-02-11_14h46.12.418,comp,2024.2.5,None,2025-02-11 14h46.21.291316 -0500,
72,72,0,critical,hwd,45.0,2.1,upper,200.0,125.0,125.0,200.0,117.0,117.0,2,0.95147705078125,None,,,,,0,0,0,0,0,72,72,41,204.94991374015808,,,,,,,,,,,,,,,,,,,,,,,,,,,,,,,,,,,,,,,,,,,,,,,,,,,,,,,,,,,,,,,,,,,,,,,,,,,,,,,,,200.0,125.0,125.0,200.0,117.0,117.0,2.1,2.11,-258,267,0,250,254,-265,204.93496894836426,204.93504238128662,204.939359664917,204.94991374015808,205.097576379776,205.097576379776,205.097576379776,205.097576379776,205.097576379776,205.097576379776,205.097576379776,205.91753435134888,2,0.95147705078125,None,,,,,,,,,,,,,,,,,,1,1,2025-02-11_14h46.12.418,comp,2024.2.5,None,2025-02-11 14h46.21.291316 -0500,
73,73,0,critical,dhw,60.0,4.0,lower,55.0,55.0,133.0,57.0,57.0,133.0,2,1.1664373874664307,None,,,,,0,0,0,0,0,73,73,58,205.93477606773376,,,,,,,,,,,,,,,,,,,,,,,,,,,,,,,,,,,,,,,,,,,,,,,,,,,,,,,,,,,,,,,,,,,,,,,,,,,,,,,,,55.0,55.0,133.0,57.0,57.0,133.0,4.0,4.1,-152,-252,0,13,191,-264,205.91907000541687,205.9191815853119,205.92229318618774,205.93477606773376,206.08400583267212,206.08400583267212,206.08400583267212,206.08400583267212,206.08400583267212,206.08400583267212,206.08400583267212,207.11678075790405,2,1.1664373874664307,None,,,,,,,,,,,,,,,,,,1,1,2025-02-11_14h46.12.418,comp,2024.2.5,None,2025-02-11 14h46.21.291316 -0500,
74,74,0,critical,wdh,60.0,1.0,lower,57.0,133.0,55.0,55.0,133.0,57.0,3,1.7207207679748535,None,,,,,0,0,0,0,0,74,74,78,207.13255333900452,,,,,,,,,,,,,,,,,,,,,,,,,,,,,,,,,,,,,,,,,,,,,,,,,,,,,,,,,,,,,,,,,,,,,,,,,,,,,,,,,57.0,133.0,55.0,55.0,133.0,57.0,1.0,1.2,-190,3,0,-19,152,3,207.11838555335999,207.11845922470093,207.12200331687927,207.13255333900452,207.28211116790771,207.28211116790771,207.28211116790771,207.28211116790771,207.28211116790771,207.28211116790771,207.28211116790771,208.8670575618744,3,1.7207207679748535,None,,,,,,,,,,,,,,,,,,1,1,2025-02-11_14h46.12.418,comp,2024.2.5,None,2025-02-11 14h46.21.291316 -0500,
75,75,0,filler_square,None,None,None,None,None,None,None,None,None,None,3,1.0479681491851807,None,,,,,0,0,0,0,0,75,75,205,208.88535618782043,,,,,,,,,,,,,,,,,,,,,,,,,,,,,,,,,,,,,,,,,,,,,,,,,,,,,,,,,,,,,,,,,,,,,,,,,,,,,,,,,66.72393007886765,86.79462173729662,61.010223928993355,66.12450718761374,89.9746720286643,89.9746720286643,2.2,2.21,-172,-287,0,281,174,261,208.86917924880981,208.86925864219666,208.87268352508545,208.88535618782043,209.03373670578003,209.03373670578003,209.03373670578003,209.03373670578003,209.03373670578003,209.03373670578003,209.03373670578003,209.95045065879822,3,1.0479681491851807,None,,,,,,,,,,,,,,,,,,1,1,2025-02-11_14h46.12.418,comp,2024.2.5,None,2025-02-11 14h46.21.291316 -0500,
76,76,0,critical,hdw,45.0,3.0,lower,133.0,57.0,65.0,65.0,57.0,133.0,1,2.2308480739593506,None,,,,,0,0,0,0,0,76,76,110,209.96681332588196,,,,,,,,,,,,,,,,,,,,,,,,,,,,,,,,,,,,,,,,,,,,,,,,,,,,,,,,,,,,,,,,,,,,,,,,,,,,,,,,,133.0,57.0,65.0,65.0,57.0,133.0,3.0,3.2,-157,-269,0,-14,195,273,209.95205068588257,209.9521861076355,209.9555699825287,209.96681332588196,210.12396931648254,210.12396931648254,210.12396931648254,210.12396931648254,210.12396931648254,210.12396931648254,210.12396931648254,212.20059537887573,1,2.2308480739593506,None,,,,,,,,,,,,,,,,,,1,1,2025-02-11_14h46.12.418,comp,2024.2.5,None,2025-02-11 14h46.21.291316 -0500,
77,77,0,filler_square,None,None,None,None,None,None,None,None,None,None,1,0.9279191493988037,None,,,,,0,0,0,0,0,77,77,171,212.22116923332214,,,,,,,,,,,,,,,,,,,,,,,,,,,,,,,,,,,,,,,,,,,,,,,,,,,,,,,,,,,,,,,,,,,,,,,,,,,,,,,,,175.26543008289224,175.26543008289224,156.24903578036185,59.58744159226613,66.23522785826427,153.62986931269415,2.1,2.12,-213,-275,0,-287,203,270,212.2026116847992,212.20268774032593,212.20599508285522,212.22116923332214,212.36043119430542,212.36043119430542,212.36043119430542,212.36043119430542,212.36043119430542,212.36043119430542,212.36043119430542,213.15201020240784,1,0.9279191493988037,None,,,,,,,,,,,,,,,,,,1,1,2025-02-11_14h46.12.418,comp,2024.2.5,None,2025-02-11 14h46.21.291316 -0500,
78,78,0,critical,wdh,45.0,2.1,upper,125.0,200.0,117.0,117.0,200.0,125.0,3,1.0613768100738525,None,,,,,0,0,0,0,0,78,78,9,213.16818952560425,,,,,,,,,,,,,,,,,,,,,,,,,,,,,,,,,,,,,,,,,,,,,,,,,,,,,,,,,,,,,,,,,,,,,,,,,,,,,,,,,125.0,200.0,117.0,117.0,200.0,125.0,2.1,2.12,-254,-277,0,-268,217,264,213.15367603302002,213.15376830101013,213.15732526779175,213.16818952560425,213.32460689544678,213.32460689544678,213.32460689544678,213.32460689544678,213.32460689544678,213.32460689544678,213.32460689544678,214.2366921901703,3,1.0613768100738525,None,,,,,,,,,,,,,,,,,,1,1,2025-02-11_14h46.12.418,comp,2024.2.5,None,2025-02-11 14h46.21.291316 -0500,
79,79,0,filler_random,None,None,None,None,None,None,None,None,None,None,3,1.0947949886322021,None,,,,,0,0,0,0,0,79,79,166,214.25446891784668,,,,,,,,,,,,,,,,,,,,,,,,,,,,,,,,,,,,,,,,,,,,,,,,,,,,,,,,,,,,,,,,,,,,,,,,,,,,,,,,,101.86793992764495,162.87222701832252,125.6392830944296,106.64045871477045,198.37921854585872,130.40727434810802,2.1,2.12,-231,-280,0,-281,215,263,214.23838639259338,214.23846220970154,214.24154019355774,214.25446891784668,214.4023654460907,214.4023654460907,214.4023654460907,214.4023654460907,214.4023654460907,214.4023654460907,214.4023654460907,215.3539435863495,3,1.0947949886322021,None,,,,,,,,,,,,,,,,,,1,1,2025-02-11_14h46.12.418,comp,2024.2.5,None,2025-02-11 14h46.21.291316 -0500,
80,80,0,critical,hwd,45.0,2.1,upper,200.0,125.0,125.0,200.0,117.0,117.0,2,1.1092755794525146,None,,,,,0,0,0,0,0,80,80,17,215.36990427970886,,,,,,,,,,,,,,,,,,,,,,,,,,,,,,,,,,,,,,,,,,,,,,,,,,,,,,,,,,,,,,,,,,,,,,,,,,,,,,,,,200.0,125.0,125.0,200.0,117.0,117.0,2.1,2.11,-258,264,0,268,254,-253,215.35549402236938,215.35556936264038,215.35906338691711,215.36990427970886,215.5221610069275,215.5221610069275,215.5221610069275,215.5221610069275,215.5221610069275,215.5221610069275,215.5221610069275,216.4877610206604,2,1.1092755794525146,None,,,,,,,,,,,,,,,,,,1,1,2025-02-11_14h46.12.418,comp,2024.2.5,None,2025-02-11 14h46.21.291316 -0500,
81,81,0,critical,hwd,60.0,2.1,upper,200.0,125.0,125.0,200.0,100.0,100.0,2,1.076289176940918,None,,,,,0,0,0,0,0,81,81,19,216.50534057617188,,,,,,,,,,,,,,,,,,,,,,,,,,,,,,,,,,,,,,,,,,,,,,,,,,,,,,,,,,,,,,,,,,,,,,,,,,,,,,,,,200.0,125.0,125.0,200.0,100.0,100.0,2.1,2.12,-258,-275,0,-254,246,272,216.48939204216003,216.4894917011261,216.492577791214,216.50534057617188,216.6531891822815,216.6531891822815,216.6531891822815,216.6531891822815,216.6531891822815,216.6531891822815,216.6531891822815,217.58577823638916,2,1.076289176940918,None,,,,,,,,,,,,,,,,,,1,1,2025-02-11_14h46.12.418,comp,2024.2.5,None,2025-02-11 14h46.21.291316 -0500,
82,82,0,critical,dwh,60.0,4.0,lower,55.0,55.0,57.0,133.0,133.0,57.0,3,1.0345373153686523,None,,,,,0,0,0,0,0,82,82,70,217.60234475135803,,,,,,,,,,,,,,,,,,,,,,,,,,,,,,,,,,,,,,,,,,,,,,,,,,,,,,,,,,,,,,,,,,,,,,,,,,,,,,,,,55.0,55.0,57.0,133.0,133.0,57.0,4.0,4.1,-190,-285,0,3,191,-251,217.5873305797577,217.58740949630737,217.59058475494385,217.60234475135803,217.75152468681335,217.75152468681335,217.75152468681335,217.75152468681335,217.75152468681335,217.75152468681335,217.75152468681335,218.65266752243042,3,1.0345373153686523,None,,,,,,,,,,,,,,,,,,1,1,2025-02-11_14h46.12.418,comp,2024.2.5,None,2025-02-11 14h46.21.291316 -0500,
83,83,0,filler_square,None,None,None,None,None,None,None,None,None,None,3,1.1603779792785645,None,,,,,0,0,0,0,0,83,83,208,218.66862630844116,,,,,,,,,,,,,,,,,,,,,,,,,,,,,,,,,,,,,,,,,,,,,,,,,,,,,,,,,,,,,,,,,,,,,,,,,,,,,,,,,175.75726719713654,169.78033974375143,167.58616367566822,107.0241146982288,181.36623255158716,181.36623255158716,4.0,4.2,-234,0,0,-262,240,-10,218.65445256233215,218.65452814102173,218.6576795578003,218.66862630844116,218.81914258003235,218.81914258003235,218.81914258003235,218.81914258003235,218.81914258003235,218.81914258003235,218.81914258003235,219.8316535949707,3,1.1603779792785645,None,,,,,,,,,,,,,,,,,,1,1,2025-02-11_14h46.12.418,comp,2024.2.5,None,2025-02-11 14h46.21.291316 -0500,
84,84,0,filler_square,None,None,None,None,None,None,None,None,None,None,1,1.2033543586730957,None,,,,,0,0,0,0,0,84,84,187,219.84980368614197,,,,,,,,,,,,,,,,,,,,,,,,,,,,,,,,,,,,,,,,,,,,,,,,,,,,,,,,,,,,,,,,,,,,,,,,,,,,,,,,,169.51504687057962,169.51504687057962,132.49844596477195,115.94403050316937,102.29863274033642,153.2319657709862,3.0,3.2,-239,-265,0,-10,231,282,219.83345699310303,219.83353281021118,219.83652782440186,219.84980368614197,219.98824334144592,219.98824334144592,219.98824334144592,219.98824334144592,219.98824334144592,219.98824334144592,219.98824334144592,221.05802249908447,1,1.2033543586730957,None,,,,,,,,,,,,,,,,,,1,1,2025-02-11_14h46.12.418,comp,2024.2.5,None,2025-02-11 14h46.21.291316 -0500,
85,85,0,critical,dhw,45.0,2.1,lower,65.0,65.0,133.0,57.0,57.0,133.0,3,1.0792317390441895,None,,,,,0,0,0,0,0,85,85,24,221.0776288509369,,,,,,,,,,,,,,,,,,,,,,,,,,,,,,,,,,,,,,,,,,,,,,,,,,,,,,,,,,,,,,,,,,,,,,,,,,,,,,,,,65.0,65.0,133.0,57.0,57.0,133.0,2.1,2.11,-157,257,0,278,191,-274,221.0596604347229,221.05976510047913,221.0631124973297,221.0776288509369,221.22146368026733,221.22146368026733,221.22146368026733,221.22146368026733,221.22146368026733,221.22146368026733,221.22146368026733,222.17310690879822,3,1.0792317390441895,None,,,,,,,,,,,,,,,,,,1,1,2025-02-11_14h46.12.418,comp,2024.2.5,None,2025-02-11 14h46.21.291316 -0500,
86,86,0,critical,dwh,45.0,2.1,lower,65.0,65.0,57.0,133.0,133.0,57.0,2,1.0314922332763672,None,,,,,0,0,0,0,0,86,86,28,222.1893560886383,,,,,,,,,,,,,,,,,,,,,,,,,,,,,,,,,,,,,,,,,,,,,,,,,,,,,,,,,,,,,,,,,,,,,,,,,,,,,,,,,65.0,65.0,57.0,133.0,133.0,57.0,2.1,2.11,-195,274,0,282,191,-261,222.17498254776,222.17510628700256,222.1790542602539,222.1893560886383,222.33821082115173,222.33821082115173,222.33821082115173,222.33821082115173,222.33821082115173,222.33821082115173,222.33821082115173,223.2227692604065,2,1.0314922332763672,None,,,,,,,,,,,,,,,,,,1,1,2025-02-11_14h46.12.418,comp,2024.2.5,None,2025-02-11 14h46.21.291316 -0500,
87,87,0,critical,hdw,45.0,2.1,lower,133.0,57.0,65.0,65.0,57.0,133.0,3,2.2944540977478027,None,,,,,0,0,0,0,0,87,87,44,223.23892259597778,,,,,,,,,,,,,,,,,,,,,,,,,,,,,,,,,,,,,,,,,,,,,,,,,,,,,,,,,,,,,,,,,,,,,,,,,,,,,,,,,133.0,57.0,65.0,65.0,57.0,133.0,2.1,2.12,-157,-288,0,-285,195,282,223.2245466709137,223.2246289253235,223.22822284698486,223.23892259597778,223.38775610923767,223.38775610923767,223.38775610923767,223.38775610923767,223.38775610923767,223.38775610923767,223.38775610923767,225.53947401046753,3,2.2944540977478027,None,,,,,,,,,,,,,,,,,,1,1,2025-02-11_14h46.12.418,comp,2024.2.5,None,2025-02-11 14h46.21.291316 -0500,
88,88,0,filler_square,None,None,None,None,None,None,None,None,None,None,2,1.248767375946045,None,,,,,0,0,0,0,0,88,88,204,225.55602765083313,,,,,,,,,,,,,,,,,,,,,,,,,,,,,,,,,,,,,,,,,,,,,,,,,,,,,,,,,,,,,,,,,,,,,,,,,,,,,,,,,90.90503147431609,82.36791685226409,106.68615337331303,106.68615337331303,100.9942972134678,78.67970335937628,1.0,1.3,289,-271,480,-282,669,-268,225.54143714904785,225.541517496109,225.54516744613647,225.55602765083313,225.7063694000244,225.7063694000244,225.7063694000244,225.7063694000244,225.7063694000244,225.7063694000244,225.7063694000244,226.82289838790894,2,1.248767375946045,None,,,,,,,,,,,,,,,,,,1,1,2025-02-11_14h46.12.418,comp,2024.2.5,None,2025-02-11 14h46.21.291316 -0500,
89,89,0,filler_square,None,None,None,None,None,None,None,None,None,None,3,0.8773925304412842,None,,,,,0,0,0,0,0,89,89,170,226.8392276763916,,,,,,,,,,,,,,,,,,,,,,,,,,,,,,,,,,,,,,,,,,,,,,,,,,,,,,,,,,,,,,,,,,,,,,,,,,,,,,,,,102.18858313486608,161.04824307286736,130.09878103954725,131.03070722510193,182.53630408396535,182.53630408396535,4.0,4.2,-242,10,0,-289,253,10,226.82466053962708,226.82473969459534,226.8289179801941,226.8392276763916,226.990140914917,226.990140914917,226.990140914917,226.990140914917,226.990140914917,226.990140914917,226.990140914917,227.72696661949158,3,0.8773925304412842,None,,,,,,,,,,,,,,,,,,1,1,2025-02-11_14h46.12.418,comp,2024.2.5,None,2025-02-11 14h46.21.291316 -0500,
90,90,0,critical,dwh,45.0,2.1,upper,117.0,117.0,125.0,200.0,200.0,125.0,2,1.0541820526123047,None,,,,,0,0,0,0,0,90,90,5,227.74248814582825,,,,,,,,,,,,,,,,,,,,,,,,,,,,,,,,,,,,,,,,,,,,,,,,,,,,,,,,,,,,,,,,,,,,,,,,,,,,,,,,,117.0,117.0,125.0,200.0,200.0,125.0,2.1,2.12,-254,-286,0,-271,258,256,227.7286515235901,227.72873163223267,227.73175525665283,227.74248814582825,227.8907287120819,227.8907287120819,227.8907287120819,227.8907287120819,227.8907287120819,227.8907287120819,227.8907287120819,228.81084370613098,2,1.0541820526123047,None,,,,,,,,,,,,,,,,,,1,1,2025-02-11_14h46.12.418,comp,2024.2.5,None,2025-02-11 14h46.21.291316 -0500,
91,91,0,critical,hdw,45.0,4.0,upper,200.0,125.0,117.0,117.0,125.0,200.0,3,1.330225944519043,None,,,,,0,0,0,0,0,91,91,113,228.82647490501404,,,,,,,,,,,,,,,,,,,,,,,,,,,,,,,,,,,,,,,,,,,,,,,,,,,,,,,,,,,,,,,,,,,,,,,,,,,,,,,,,200.0,125.0,117.0,117.0,125.0,200.0,4.0,4.1,-217,-271,0,-12,254,-253,228.8125455379486,228.81268048286438,228.81607270240784,228.82647490501404,228.97355151176453,228.97355151176453,228.97355151176453,228.97355151176453,228.97355151176453,228.97355151176453,228.97355151176453,230.17292833328247,3,1.330225944519043,None,,,,,,,,,,,,,,,,,,1,1,2025-02-11_14h46.12.418,comp,2024.2.5,None,2025-02-11 14h46.21.291316 -0500,
92,92,0,critical,hwd,60.0,2.1,upper,200.0,125.0,125.0,200.0,100.0,100.0,2,0.8397340774536133,None,,,,,0,0,0,0,0,92,92,43,230.188866853714,,,,,,,,,,,,,,,,,,,,,,,,,,,,,,,,,,,,,,,,,,,,,,,,,,,,,,,,,,,,,,,,,,,,,,,,,,,,,,,,,200.0,125.0,125.0,200.0,100.0,100.0,2.1,2.12,-258,-272,0,-281,246,265,230.17444944381714,230.17452573776245,230.1777102947235,230.188866853714,230.3408224582672,230.3408224582672,230.3408224582672,230.3408224582672,230.3408224582672,230.3408224582672,230.3408224582672,231.04282474517822,2,0.8397340774536133,None,,,,,,,,,,,,,,,,,,1,1,2025-02-11_14h46.12.418,comp,2024.2.5,None,2025-02-11 14h46.21.291316 -0500,
93,93,0,critical,hdw,45.0,3.0,upper,200.0,125.0,117.0,117.0,125.0,200.0,3,0.9427595138549805,None,,,,,0,0,0,0,0,93,93,111,231.06217861175537,,,,,,,,,,,,,,,,,,,,,,,,,,,,,,,,,,,,,,,,,,,,,,,,,,,,,,,,,,,,,,,,,,,,,,,,,,,,,,,,,200.0,125.0,117.0,117.0,125.0,200.0,3.0,3.2,-217,-268,0,6,254,269,231.04441690444946,231.04449367523193,231.04749751091003,231.06217861175537,231.20670008659363,231.20670008659363,231.20670008659363,231.20670008659363,231.20670008659363,231.20670008659363,231.20670008659363,232.02366161346436,3,0.9427595138549805,None,,,,,,,,,,,,,,,,,,1,1,2025-02-11_14h46.12.418,comp,2024.2.5,None,2025-02-11 14h46.21.291316 -0500,
94,94,0,filler_square,None,None,None,None,None,None,None,None,None,None,3,2.578836679458618,None,,,,,0,0,0,0,0,94,94,172,232.04184651374817,,,,,,,,,,,,,,,,,,,,,,,,,,,,,,,,,,,,,,,,,,,,,,,,,,,,,,,,,,,,,,,,,,,,,,,,,,,,,,,,,82.6839008732374,64.67217764238066,76.14806361427098,83.21087254409441,83.79799749470948,83.79799749470948,2.1,2.11,-170,289,0,276,180,-274,232.0255835056305,232.02569317817688,232.02907276153564,232.04184651374817,232.1897542476654,232.1897542476654,232.1897542476654,232.1897542476654,232.1897542476654,232.1897542476654,232.1897542476654,234.62468791007996,3,2.578836679458618,None,,,,,,,,,,,,,,,,,,1,1,2025-02-11_14h46.12.418,comp,2024.2.5,None,2025-02-11 14h46.21.291316 -0500,
95,95,0,filler_square,None,None,None,None,None,None,None,None,None,None,3,0.9132609367370605,None,,,,,0,0,0,0,0,95,95,199,234.6433811187744,,,,,,,,,,,,,,,,,,,,,,,,,,,,,,,,,,,,,,,,,,,,,,,,,,,,,,,,,,,,,,,,,,,,,,,,,,,,,,,,,119.89773284716637,114.23798901221663,117.50889044632382,62.57478428622461,125.58971938450841,125.58971938450841,3.0,3.2,-184,-255,0,0,190,253,234.6266303062439,234.626708984375,234.63025856018066,234.6433811187744,234.79130697250366,234.79130697250366,234.79130697250366,234.79130697250366,234.79130697250366,234.79130697250366,234.79130697250366,235.55966973304749,3,0.9132609367370605,None,,,,,,,,,,,,,,,,,,1,1,2025-02-11_14h46.12.418,comp,2024.2.5,None,2025-02-11 14h46.21.291316 -0500,
96,96,0,critical,dwh,45.0,1.0,lower,65.0,65.0,57.0,133.0,133.0,57.0,3,1.185236930847168,None,,,,,0,0,0,0,0,96,96,60,235.58018016815186,,,,,,,,,,,,,,,,,,,,,,,,,,,,,,,,,,,,,,,,,,,,,,,,,,,,,,,,,,,,,,,,,,,,,,,,,,,,,,,,,65.0,65.0,57.0,133.0,133.0,57.0,1.0,1.2,-195,-3,0,-12,191,-18,235.56120014190674,235.56128549575806,235.56461834907532,235.58018016815186,235.72663712501526,235.72663712501526,235.72663712501526,235.72663712501526,235.72663712501526,235.72663712501526,235.72663712501526,236.77598667144775,3,1.185236930847168,None,,,,,,,,,,,,,,,,,,1,1,2025-02-11_14h46.12.418,comp,2024.2.5,None,2025-02-11 14h46.21.291316 -0500,
97,97,0,catch,None,None,None,None,None,None,None,None,None,None,3,0.7726755142211914,None,,,,,0,0,0,0,0,97,97,124,236.7929389476776,,,,,,,,,,,,,,,,,,,,,,,,,,,,,,,,,,,,,,,,,,,,,,,,,,,,,,,,,,,,,,,,,,,,,,,,,,,,,,,,,102,88,67,123,152,173,4.0,4.2,-202,11,0,-259,244,-15,236.77797889709473,236.77805948257446,236.78219485282898,236.7929389476776,236.94437789916992,236.94437789916992,236.94437789916992,236.94437789916992,236.94437789916992,236.94437789916992,236.94437789916992,237.57616996765137,3,0.7726755142211914,None,,,,,,,,,,,,,,,,,,1,1,2025-02-11_14h46.12.418,comp,2024.2.5,None,2025-02-11 14h46.21.291316 -0500,
98,98,0,critical,dhw,45.0,1.0,upper,117.0,117.0,200.0,125.0,125.0,200.0,2,0.9080252647399902,None,,,,,0,0,0,0,0,98,98,49,237.59242463111877,,,,,,,,,,,,,,,,,,,,,,,,,,,,,,,,,,,,,,,,,,,,,,,,,,,,,,,,,,,,,,,,,,,,,,,,,,,,,,,,,117.0,117.0,200.0,125.0,125.0,200.0,1.0,1.3,263,-263,480,-252,738,-267,237.57787036895752,237.57795906066895,237.58167815208435,237.59242463111877,237.74852395057678,237.74852395057678,237.74852395057678,237.74852395057678,237.74852395057678,237.74852395057678,237.74852395057678,238.5115728378296,2,0.9080252647399902,None,,,,,,,,,,,,,,,,,,1,1,2025-02-11_14h46.12.418,comp,2024.2.5,None,2025-02-11 14h46.21.291316 -0500,
99,99,0,critical,dwh,60.0,2.1,lower,55.0,55.0,57.0,133.0,133.0,57.0,2,1.0442962646484375,None,,,,,0,0,0,0,0,99,99,6,238.52812886238098,,,,,,,,,,,,,,,,,,,,,,,,,,,,,,,,,,,,,,,,,,,,,,,,,,,,,,,,,,,,,,,,,,,,,,,,,,,,,,,,,55.0,55.0,57.0,133.0,133.0,57.0,2.1,2.11,-190,257,0,286,191,-269,238.51366662979126,238.51380562782288,238.51730179786682,238.52812886238098,238.66391825675964,238.66391825675964,238.66391825675964,238.66391825675964,238.66391825675964,238.66391825675964,238.66391825675964,239.57698464393616,2,1.0442962646484375,None,,,,,,,,,,,,,,,,,,1,1,2025-02-11_14h46.12.418,comp,2024.2.5,None,2025-02-11 14h46.21.291316 -0500,
100,100,0,filler_random,None,None,None,None,None,None,None,None,None,None,1,0.8443543910980225,None,,,,,0,0,0,0,0,100,100,147,239.5930314064026,,,,,,,,,,,,,,,,,,,,,,,,,,,,,,,,,,,,,,,,,,,,,,,,,,,,,,,,,,,,,,,,,,,,,,,,,,,,,,,,,199.76115884153978,135.16544138296484,146.72690600386827,60.38779912335303,58.2895280979716,86.751743959876,4.0,4.2,-194,-16,0,-252,170,2,239.57880234718323,239.57888340950012,239.5824089050293,239.5930314064026,239.74620056152344,239.74620056152344,239.74620056152344,239.74620056152344,239.74620056152344,239.74620056152344,239.74620056152344,240.44402551651,1,0.8443543910980225,None,,,,,,,,,,,,,,,,,,1,1,2025-02-11_14h46.12.418,comp,2024.2.5,None,2025-02-11 14h46.21.291316 -0500,
101,101,0,filler_random,None,None,None,None,None,None,None,None,None,None,1,0.9292092323303223,None,,,,,0,0,0,0,0,101,101,169,240.45978307724,,,,,,,,,,,,,,,,,,,,,,,,,,,,,,,,,,,,,,,,,,,,,,,,,,,,,,,,,,,,,,,,,,,,,,,,,,,,,,,,,113.33600665839458,119.75276219409913,70.16602547166576,115.1664983536404,66.4164480527961,111.28709618825444,1.0,1.3,267,-263,480,-251,689,-263,240.44584393501282,240.4459249973297,240.44906377792358,240.45978307724,240.6175012588501,240.6175012588501,240.6175012588501,240.6175012588501,240.6175012588501,240.6175012588501,240.6175012588501,241.3951051235199,1,0.9292092323303223,None,,,,,,,,,,,,,,,,,,1,1,2025-02-11_14h46.12.418,comp,2024.2.5,None,2025-02-11 14h46.21.291316 -0500,
102,102,0,critical,whd,60.0,2.1,upper,125.0,200.0,200.0,125.0,100.0,100.0,2,1.0568156242370605,None,,,,,0,0,0,0,0,102,102,15,241.4116141796112,,,,,,,,,,,,,,,,,,,,,,,,,,,,,,,,,,,,,,,,,,,,,,,,,,,,,,,,,,,,,,,,,,,,,,,,,,,,,,,,,125.0,200.0,200.0,125.0,100.0,100.0,2.1,2.12,-258,-254,0,-276,208,260,241.39679193496704,241.3968744277954,241.40004682540894,241.4116141796112,241.55974555015564,241.55974555015564,241.55974555015564,241.55974555015564,241.55974555015564,241.55974555015564,241.55974555015564,242.48495268821716,2,1.0568156242370605,None,,,,,,,,,,,,,,,,,,1,1,2025-02-11_14h46.12.418,comp,2024.2.5,None,2025-02-11 14h46.21.291316 -0500,
103,103,0,critical,wdh,60.0,4.0,upper,125.0,200.0,100.0,100.0,200.0,125.0,3,0.7004077434539795,None,,,,,0,0,0,0,0,103,103,83,242.50481414794922,,,,,,,,,,,,,,,,,,,,,,,,,,,,,,,,,,,,,,,,,,,,,,,,,,,,,,,,,,,,,,,,,,,,,,,,,,,,,,,,,125.0,200.0,100.0,100.0,200.0,125.0,4.0,4.2,-246,14,0,-286,208,-9,242.48657846450806,242.48665380477905,242.48964428901672,242.50481414794922,242.64452743530273,242.64452743530273,242.64452743530273,242.64452743530273,242.64452743530273,242.64452743530273,242.64452743530273,243.20819091796875,3,0.7004077434539795,None,,,,,,,,,,,,,,,,,,1,1,2025-02-11_14h46.12.418,comp,2024.2.5,None,2025-02-11 14h46.21.291316 -0500,
104,104,0,critical,dhw,45.0,2.1,lower,65.0,65.0,133.0,57.0,57.0,133.0,3,0.9161734580993652,None,,,,,0,0,0,0,0,104,104,0,243.22406244277954,,,,,,,,,,,,,,,,,,,,,,,,,,,,,,,,,,,,,,,,,,,,,,,,,,,,,,,,,,,,,,,,,,,,,,,,,,,,,,,,,65.0,65.0,133.0,57.0,57.0,133.0,2.1,2.11,-157,268,0,289,191,-261,243.20971703529358,243.20979499816895,243.21277284622192,243.22406244277954,243.36736750602722,243.36736750602722,243.36736750602722,243.36736750602722,243.36736750602722,243.36736750602722,243.36736750602722,244.144273519516,3,0.9161734580993652,None,,,,,,,,,,,,,,,,,,1,1,2025-02-11_14h46.12.418,comp,2024.2.5,None,2025-02-11 14h46.21.291316 -0500,
105,105,0,catch,None,None,None,None,None,None,None,None,None,None,2,0.8111996650695801,None,,,,,0,0,0,0,0,105,105,126,244.16105365753174,,,,,,,,,,,,,,,,,,,,,,,,,,,,,,,,,,,,,,,,,,,,,,,,,,,,,,,,,,,,,,,,,,,,,,,,,,,,,,,,,106,84,191,134,88,102,4.0,4.2,-205,8,0,-264,214,9,244.14653396606445,244.1466166973114,244.15032958984375,244.16105365753174,244.31217980384827,244.31217980384827,244.31217980384827,244.31217980384827,244.31217980384827,244.31217980384827,244.31217980384827,244.98599481582642,2,0.8111996650695801,None,,,,,,,,,,,,,,,,,,1,1,2025-02-11_14h46.12.418,comp,2024.2.5,None,2025-02-11 14h46.21.291316 -0500,
106,106,0,critical,hdw,45.0,2.1,lower,133.0,57.0,65.0,65.0,57.0,133.0,1,1.0225675106048584,None,,,,,0,0,0,0,0,106,106,20,245.00569581985474,,,,,,,,,,,,,,,,,,,,,,,,,,,,,,,,,,,,,,,,,,,,,,,,,,,,,,,,,,,,,,,,,,,,,,,,,,,,,,,,,133.0,57.0,65.0,65.0,57.0,133.0,2.1,2.11,-157,277,0,289,195,-251,244.98762464523315,244.98771786689758,244.99110436439514,245.00569581985474,245.14833974838257,245.14833974838257,245.14833974838257,245.14833974838257,245.14833974838257,245.14833974838257,245.14833974838257,246.04395079612732,1,1.0225675106048584,None,,,,,,,,,,,,,,,,,,1,1,2025-02-11_14h46.12.418,comp,2024.2.5,None,2025-02-11 14h46.21.291316 -0500,
107,107,0,critical,hdw,60.0,1.0,lower,133.0,57.0,55.0,55.0,57.0,133.0,3,0.8527162075042725,None,,,,,0,0,0,0,0,107,107,114,246.0635952949524,,,,,,,,,,,,,,,,,,,,,,,,,,,,,,,,,,,,,,,,,,,,,,,,,,,,,,,,,,,,,,,,,,,,,,,,,,,,,,,,,133.0,57.0,55.0,55.0,57.0,133.0,1.0,1.1,-632,254,-480,277,-290,252,246.045471906662,246.04554557800293,246.04882216453552,246.0635952949524,246.2118592262268,246.2118592262268,246.2118592262268,246.2118592262268,246.2118592262268,246.2118592262268,246.2118592262268,246.92970895767212,3,0.8527162075042725,None,,,,,,,,,,,,,,,,,,1,1,2025-02-11_14h46.12.418,comp,2024.2.5,None,2025-02-11 14h46.21.291316 -0500,
108,108,0,critical,hwd,45.0,2.1,lower,133.0,57.0,57.0,133.0,65.0,65.0,2,1.292461633682251,None,,,,,0,0,0,0,0,108,108,16,246.94551348686218,,,,,,,,,,,,,,,,,,,,,,,,,,,,,,,,,,,,,,,,,,,,,,,,,,,,,,,,,,,,,,,,,,,,,,,,,,,,,,,,,133.0,57.0,57.0,133.0,65.0,65.0,2.1,2.12,-191,-267,0,-286,195,267,246.93143439292908,246.9315311908722,246.9351634979248,246.94551348686218,247.09627985954285,247.09627985954285,247.09627985954285,247.09627985954285,247.09627985954285,247.09627985954285,247.09627985954285,248.24736523628235,2,1.292461633682251,None,,,,,,,,,,,,,,,,,,1,1,2025-02-11_14h46.12.418,comp,2024.2.5,None,2025-02-11 14h46.21.291316 -0500,
109,109,0,critical,hdw,60.0,2.1,lower,133.0,57.0,55.0,55.0,57.0,133.0,3,1.2079250812530518,None,,,,,0,0,0,0,0,109,109,46,248.26822710037231,,,,,,,,,,,,,,,,,,,,,,,,,,,,,,,,,,,,,,,,,,,,,,,,,,,,,,,,,,,,,,,,,,,,,,,,,,,,,,,,,133.0,57.0,55.0,55.0,57.0,133.0,2.1,2.11,-152,282,0,268,190,-270,248.24894785881042,248.24902868270874,248.25251245498657,248.26822710037231,248.417400598526,248.417400598526,248.417400598526,248.417400598526,248.417400598526,248.417400598526,248.417400598526,249.47888493537903,3,1.2079250812530518,None,,,,,,,,,,,,,,,,,,1,1,2025-02-11_14h46.12.418,comp,2024.2.5,None,2025-02-11 14h46.21.291316 -0500,
110,110,0,critical,dhw,45.0,3.0,upper,117.0,117.0,200.0,125.0,125.0,200.0,2,0.9412722587585449,None,,,,,0,0,0,0,0,110,110,51,249.4951150417328,,,,,,,,,,,,,,,,,,,,,,,,,,,,,,,,,,,,,,,,,,,,,,,,,,,,,,,,,,,,,,,,,,,,,,,,,,,,,,,,,117.0,117.0,200.0,125.0,125.0,200.0,3.0,3.2,-217,-257,0,-4,258,267,249.4804482460022,249.4805245399475,249.48405265808105,249.4951150417328,249.6494755744934,249.6494755744934,249.6494755744934,249.6494755744934,249.6494755744934,249.6494755744934,249.6494755744934,250.4464237689972,2,0.9412722587585449,None,,,,,,,,,,,,,,,,,,1,1,2025-02-11_14h46.12.418,comp,2024.2.5,None,2025-02-11 14h46.21.291316 -0500,
111,111,0,critical,hwd,45.0,4.0,upper,200.0,125.0,125.0,200.0,117.0,117.0,2,0.7449655532836914,None,,,,,0,0,0,0,0,111,111,101,250.46715259552002,,,,,,,,,,,,,,,,,,,,,,,,,,,,,,,,,,,,,,,,,,,,,,,,,,,,,,,,,,,,,,,,,,,,,,,,,,,,,,,,,200.0,125.0,125.0,200.0,117.0,117.0,4.0,4.1,-258,-289,0,-1,254,-251,250.44792461395264,250.448016166687,250.45145177841187,250.46715259552002,250.61334705352783,250.61334705352783,250.61334705352783,250.61334705352783,250.61334705352783,250.61334705352783,250.61334705352783,251.228276014328,2,0.7449655532836914,None,,,,,,,,,,,,,,,,,,1,1,2025-02-11_14h46.12.418,comp,2024.2.5,None,2025-02-11 14h46.21.291316 -0500,
112,112,0,critical,whd,60.0,4.0,lower,57.0,133.0,133.0,57.0,55.0,55.0,2,0.7785472869873047,None,,,,,0,0,0,0,0,112,112,94,251.2444486618042,,,,,,,,,,,,,,,,,,,,,,,,,,,,,,,,,,,,,,,,,,,,,,,,,,,,,,,,,,,,,,,,,,,,,,,,,,,,,,,,,57.0,133.0,133.0,57.0,55.0,55.0,4.0,4.2,-191,1,0,-261,152,-19,251.22983837127686,251.22991800308228,251.2331051826477,251.2444486618042,251.38110876083374,251.38110876083374,251.38110876083374,251.38110876083374,251.38110876083374,251.38110876083374,251.38110876083374,252.02964234352112,2,0.7785472869873047,None,,,,,,,,,,,,,,,,,,1,1,2025-02-11_14h46.12.418,comp,2024.2.5,None,2025-02-11 14h46.21.291316 -0500,
113,113,0,critical,hwd,45.0,3.0,lower,133.0,57.0,57.0,133.0,65.0,65.0,2,0.5946743488311768,None,,,,,0,0,0,0,0,113,113,98,252.04968070983887,,,,,,,,,,,,,,,,,,,,,,,,,,,,,,,,,,,,,,,,,,,,,,,,,,,,,,,,,,,,,,,,,,,,,,,,,,,,,,,,,133.0,57.0,57.0,133.0,65.0,65.0,3.0,3.1,-191,257,0,-4,195,-277,252.03127813339233,252.03135347366333,252.03470945358276,252.04968070983887,252.19684529304504,252.19684529304504,252.19684529304504,252.19684529304504,252.19684529304504,252.19684529304504,252.19684529304504,252.64796614646912,2,0.5946743488311768,None,,,,,,,,,,,,,,,,,,1,1,2025-02-11_14h46.12.418,comp,2024.2.5,None,2025-02-11 14h46.21.291316 -0500,
114,114,0,critical,wdh,60.0,2.1,upper,125.0,200.0,100.0,100.0,200.0,125.0,3,1.6604571342468262,None,,,,,0,0,0,0,0,114,114,11,252.6641652584076,,,,,,,,,,,,,,,,,,,,,,,,,,,,,,,,,,,,,,,,,,,,,,,,,,,,,,,,,,,,,,,,,,,,,,,,,,,,,,,,,125.0,200.0,100.0,100.0,200.0,125.0,2.1,2.11,-246,286,0,266,208,-260,252.64953088760376,252.6496078968048,252.6532542705536,252.6641652584076,252.81406998634338,252.81406998634338,252.81406998634338,252.81406998634338,252.81406998634338,252.81406998634338,252.81406998634338,254.3296022415161,3,1.6604571342468262,None,,,,,,,,,,,,,,,,,,1,1,2025-02-11_14h46.12.418,comp,2024.2.5,None,2025-02-11 14h46.21.291316 -0500,
115,115,0,filler_random,None,None,None,None,None,None,None,None,None,None,3,0.9448955059051514,None,,,,,0,0,0,0,0,115,115,130,254.34751176834106,,,,,,,,,,,,,,,,,,,,,,,,,,,,,,,,,,,,,,,,,,,,,,,,,,,,,,,,,,,,,,,,,,,,,,,,,,,,,,,,,137.84946007546506,72.45466800026595,69.77481369494458,120.95126582366379,151.60914094244066,142.5875554752554,1.0,1.3,287,-287,480,-283,708,-264,254.33129930496216,254.33137559890747,254.3346803188324,254.34751176834106,254.49817895889282,254.49817895889282,254.49817895889282,254.49817895889282,254.49817895889282,254.49817895889282,254.49817895889282,255.2964997291565,3,0.9448955059051514,None,,,,,,,,,,,,,,,,,,1,1,2025-02-11_14h46.12.418,comp,2024.2.5,None,2025-02-11 14h46.21.291316 -0500,
116,116,0,filler_random,None,None,None,None,None,None,None,None,None,None,3,0.8106987476348877,None,,,,,0,0,0,0,0,116,116,133,255.31320095062256,,,,,,,,,,,,,,,,,,,,,,,,,,,,,,,,,,,,,,,,,,,,,,,,,,,,,,,,,,,,,,,,,,,,,,,,,,,,,,,,,92.72421534578977,137.5298326282139,171.70610105327142,90.94833864012287,196.7394875593585,147.73948661591515,2.2,2.21,-210,-265,0,268,215,264,255.29827284812927,255.2983741760254,255.30173540115356,255.31320095062256,255.46177792549133,255.46177792549133,255.46177792549133,255.46177792549133,255.46177792549133,255.46177792549133,255.46177792549133,256.1367082595825,3,0.8106987476348877,None,,,,,,,,,,,,,,,,,,1,1,2025-02-11_14h46.12.418,comp,2024.2.5,None,2025-02-11 14h46.21.291316 -0500,
117,117,0,filler_random,None,None,None,None,None,None,None,None,None,None,3,1.0868732929229736,None,,,,,0,0,0,0,0,117,117,167,256.1571080684662,,,,,,,,,,,,,,,,,,,,,,,,,,,,,,,,,,,,,,,,,,,,,,,,,,,,,,,,,,,,,,,,,,,,,,,,,,,,,,,,,79.46451032419512,199.80567992048205,107.57508973843431,179.4686593690023,113.79683877692932,170.34389471587141,2.2,2.22,-286,266,0,-288,271,-276,256.1384184360504,256.13849425315857,256.14147114753723,256.1571080684662,256.2995467185974,256.2995467185974,256.2995467185974,256.2995467185974,256.2995467185974,256.2995467185974,256.2995467185974,257.2482793331146,3,1.0868732929229736,None,,,,,,,,,,,,,,,,,,1,1,2025-02-11_14h46.12.418,comp,2024.2.5,None,2025-02-11 14h46.21.291316 -0500,
118,118,0,critical,whd,60.0,1.0,lower,57.0,133.0,133.0,57.0,55.0,55.0,2,1.5233745574951172,None,,,,,0,0,0,0,0,118,118,90,257.2648823261261,,,,,,,,,,,,,,,,,,,,,,,,,,,,,,,,,,,,,,,,,,,,,,,,,,,,,,,,,,,,,,,,,,,,,,,,,,,,,,,,,57.0,133.0,133.0,57.0,55.0,55.0,1.0,1.3,289,-280,480,-253,632,-267,257.2498457431793,257.2499270439148,257.25409746170044,257.2648823261261,257.41355443000793,257.41355443000793,257.41355443000793,257.41355443000793,257.41355443000793,257.41355443000793,257.41355443000793,258.7903983592987,2,1.5233745574951172,None,,,,,,,,,,,,,,,,,,1,1,2025-02-11_14h46.12.418,comp,2024.2.5,None,2025-02-11 14h46.21.291316 -0500,
119,119,0,filler_square,None,None,None,None,None,None,None,None,None,None,2,2.3257358074188232,None,,,,,0,0,0,0,0,119,119,179,258.80606055259705,,,,,,,,,,,,,,,,,,,,,,,,,,,,,,,,,,,,,,,,,,,,,,,,,,,,,,,,,,,,,,,,,,,,,,,,,,,,,,,,,60.9176691287227,60.1315870526275,61.31651118088152,61.31651118088152,58.07900747043825,57.29681834299971,2.2,2.21,-157,-266,0,273,155,260,258.79223823547363,258.7923176288605,258.79530358314514,258.80606055259705,258.9496510028839,258.9496510028839,258.9496510028839,258.9496510028839,258.9496510028839,258.9496510028839,258.9496510028839,261.1467094421387,2,2.3257358074188232,None,,,,,,,,,,,,,,,,,,1,1,2025-02-11_14h46.12.418,comp,2024.2.5,None,2025-02-11 14h46.21.291316 -0500,
120,120,0,filler_random,None,None,None,None,None,None,None,None,None,None,2,1.5614850521087646,None,,,,,0,0,0,0,0,120,120,163,261.16314816474915,,,,,,,,,,,,,,,,,,,,,,,,,,,,,,,,,,,,,,,,,,,,,,,,,,,,,,,,,,,,,,,,,,,,,,,,,,,,,,,,,94.32328670702803,114.03020618873862,183.2544075751743,151.12166383146229,86.45242810570699,196.99069416883827,4.0,4.2,-229,-12,0,-261,270,-15,261.1474208831787,261.1474528312683,261.1486361026764,261.16314816474915,261.29842734336853,261.29842734336853,261.29842734336853,261.29842734336853,261.29842734336853,261.29842734336853,261.29842734336853,262.73131370544434,2,1.5614850521087646,None,,,,,,,,,,,,,,,,,,1,1,2025-02-11_14h46.12.418,comp,2024.2.5,None,2025-02-11 14h46.21.291316 -0500,
121,121,0,critical,hdw,45.0,1.0,upper,200.0,125.0,117.0,117.0,125.0,200.0,3,2.0718138217926025,None,,,,,0,0,0,0,0,121,121,109,262.74797916412354,,,,,,,,,,,,,,,,,,,,,,,,,,,,,,,,,,,,,,,,,,,,,,,,,,,,,,,,,,,,,,,,,,,,,,,,,,,,,,,,,200.0,125.0,117.0,117.0,125.0,200.0,1.0,1.3,263,-278,480,-266,734,-280,262.732928276062,262.7330048084259,262.73644638061523,262.74797916412354,262.88825845718384,262.88825845718384,262.88825845718384,262.88825845718384,262.88825845718384,262.88825845718384,262.88825845718384,264.83587169647217,3,2.0718138217926025,None,,,,,,,,,,,,,,,,,,1,1,2025-02-11_14h46.12.418,comp,2024.2.5,None,2025-02-11 14h46.21.291316 -0500,
122,122,0,critical,hwd,45.0,3.0,upper,200.0,125.0,125.0,200.0,117.0,117.0,2,1.22426176071167,None,,,,,0,0,0,0,0,122,122,99,264.85158252716064,,,,,,,,,,,,,,,,,,,,,,,,,,,,,,,,,,,,,,,,,,,,,,,,,,,,,,,,,,,,,,,,,,,,,,,,,,,,,,,,,200.0,125.0,125.0,200.0,117.0,117.0,3.0,3.1,-258,277,0,-2,254,-273,264.8374891281128,264.8375699520111,264.8408088684082,264.85158252716064,265.0013060569763,265.0013060569763,265.0013060569763,265.0013060569763,265.0013060569763,265.0013060569763,265.0013060569763,266.0852954387665,2,1.22426176071167,None,,,,,,,,,,,,,,,,,,1,1,2025-02-11_14h46.12.418,comp,2024.2.5,None,2025-02-11 14h46.21.291316 -0500,
123,123,0,critical,dhw,60.0,3.0,lower,55.0,55.0,133.0,57.0,57.0,133.0,2,1.4948163032531738,None,,,,,0,0,0,0,0,123,123,56,266.1017289161682,,,,,,,,,,,,,,,,,,,,,,,,,,,,,,,,,,,,,,,,,,,,,,,,,,,,,,,,,,,,,,,,,,,,,,,,,,,,,,,,,55.0,55.0,133.0,57.0,57.0,133.0,3.0,3.2,-152,-267,0,16,191,257,266.08686661720276,266.086971282959,266.0905725955963,266.1017289161682,266.24943566322327,266.24943566322327,266.24943566322327,266.24943566322327,266.24943566322327,266.24943566322327,266.24943566322327,267.6025996208191,2,1.4948163032531738,None,,,,,,,,,,,,,,,,,,1,1,2025-02-11_14h46.12.418,comp,2024.2.5,None,2025-02-11 14h46.21.291316 -0500,
124,124,0,critical,hdw,60.0,1.0,upper,200.0,125.0,100.0,100.0,125.0,200.0,3,2.0637717247009277,None,,,,,0,0,0,0,0,124,124,115,267.6198356151581,,,,,,,,,,,,,,,,,,,,,,,,,,,,,,,,,,,,,,,,,,,,,,,,,,,,,,,,,,,,,,,,,,,,,,,,,,,,,,,,,200.0,125.0,100.0,100.0,125.0,200.0,1.0,1.2,-208,-2,0,-17,246,9,267.60432958602905,267.6044113636017,267.60823917388916,267.6198356151581,267.768372297287,267.768372297287,267.768372297287,267.768372297287,267.768372297287,267.768372297287,267.768372297287,269.70286226272583,3,2.0637717247009277,None,,,,,,,,,,,,,,,,,,1,1,2025-02-11_14h46.12.418,comp,2024.2.5,None,2025-02-11 14h46.21.291316 -0500,
125,125,0,filler_random,None,None,None,None,None,None,None,None,None,None,2,0.8986897468566895,None,,,,,0,0,0,0,0,125,125,157,269.7208926677704,,,,,,,,,,,,,,,,,,,,,,,,,,,,,,,,,,,,,,,,,,,,,,,,,,,,,,,,,,,,,,,,,,,,,,,,,,,,,,,,,103.67560728144036,153.08055430858138,169.08319438370017,178.14574208062407,74.63916370445355,147.24892467856526,2.2,2.22,-262,271,0,-258,259,-285,269.70467162132263,269.7048034667969,269.70819115638733,269.7208926677704,269.8691384792328,269.8691384792328,269.8691384792328,269.8691384792328,269.8691384792328,269.8691384792328,269.8691384792328,270.6369059085846,2,0.8986897468566895,None,,,,,,,,,,,,,,,,,,1,1,2025-02-11_14h46.12.418,comp,2024.2.5,None,2025-02-11 14h46.21.291316 -0500,
126,126,0,critical,hdw,60.0,2.1,lower,133.0,57.0,55.0,55.0,57.0,133.0,1,1.3332414627075195,None,,,,,0,0,0,0,0,126,126,22,270.6543219089508,,,,,,,,,,,,,,,,,,,,,,,,,,,,,,,,,,,,,,,,,,,,,,,,,,,,,,,,,,,,,,,,,,,,,,,,,,,,,,,,,133.0,57.0,55.0,55.0,57.0,133.0,2.1,2.12,-152,-252,0,-266,190,265,270.63853430747986,270.63861107826233,270.6416506767273,270.6543219089508,270.80110216140747,270.80110216140747,270.80110216140747,270.80110216140747,270.80110216140747,270.80110216140747,270.80110216140747,272.008722782135,1,1.3332414627075195,None,,,,,,,,,,,,,,,,,,1,1,2025-02-11_14h46.12.418,comp,2024.2.5,None,2025-02-11 14h46.21.291316 -0500,
127,127,0,critical,dwh,60.0,2.1,lower,55.0,55.0,57.0,133.0,133.0,57.0,2,1.5056304931640625,None,,,,,0,0,0,0,0,127,127,30,272.02601075172424,,,,,,,,,,,,,,,,,,,,,,,,,,,,,,,,,,,,,,,,,,,,,,,,,,,,,,,,,,,,,,,,,,,,,,,,,,,,,,,,,55.0,55.0,57.0,133.0,133.0,57.0,2.1,2.12,-190,-267,0,-267,191,272,272.01026248931885,272.01034021377563,272.01334023475647,272.02601075172424,272.1691081523895,272.1691081523895,272.1691081523895,272.1691081523895,272.1691081523895,272.1691081523895,272.1691081523895,273.5358889102936,2,1.5056304931640625,None,,,,,,,,,,,,,,,,,,1,1,2025-02-11_14h46.12.418,comp,2024.2.5,None,2025-02-11 14h46.21.291316 -0500,
128,128,0,filler_square,None,None,None,None,None,None,None,None,None,None,3,1.2917759418487549,None,,,,,0,0,0,0,0,128,128,206,273.5518751144409,,,,,,,,,,,,,,,,,,,,,,,,,,,,,,,,,,,,,,,,,,,,,,,,,,,,,,,,,,,,,,,,,,,,,,,,,,,,,,,,,58.2900981722619,59.60510900848399,60.9876745062089,59.63644575168246,62.60397245035724,62.60397245035724,2.1,2.12,-156,-283,0,-261,157,261,273.537654876709,273.5377335548401,273.54096007347107,273.5518751144409,273.70343804359436,273.70343804359436,273.70343804359436,273.70343804359436,273.70343804359436,273.70343804359436,273.70343804359436,274.854065656662,3,1.2917759418487549,None,,,,,,,,,,,,,,,,,,1,1,2025-02-11_14h46.12.418,comp,2024.2.5,None,2025-02-11 14h46.21.291316 -0500,
129,129,0,filler_random,None,None,None,None,None,None,None,None,None,None,3,0.8145573139190674,None,,,,,0,0,0,0,0,129,129,144,274.86972856521606,,,,,,,,,,,,,,,,,,,,,,,,,,,,,,,,,,,,,,,,,,,,,,,,,,,,,,,,,,,,,,,,,,,,,,,,,,,,,,,,,84.15393564663859,165.18898253815263,131.06886799268221,179.2938499413282,179.22605696344118,195.87180753670674,2.1,2.12,-268,-287,0,-276,284,264,274.85579013824463,274.8558931350708,274.8589777946472,274.86972856521606,275.0223214626312,275.0223214626312,275.0223214626312,275.0223214626312,275.0223214626312,275.0223214626312,275.0223214626312,275.6918168067932,3,0.8145573139190674,None,,,,,,,,,,,,,,,,,,1,1,2025-02-11_14h46.12.418,comp,2024.2.5,None,2025-02-11 14h46.21.291316 -0500,
130,130,0,critical,whd,45.0,3.0,lower,57.0,133.0,133.0,57.0,65.0,65.0,2,2.5079171657562256,None,,,,,0,0,0,0,0,130,130,86,275.71151423454285,,,,,,,,,,,,,,,,,,,,,,,,,,,,,,,,,,,,,,,,,,,,,,,,,,,,,,,,,,,,,,,,,,,,,,,,,,,,,,,,,57.0,133.0,133.0,57.0,65.0,65.0,3.0,3.1,-191,256,0,17,157,-288,275.6933436393738,275.6934235095978,275.6964087486267,275.71151423454285,275.85418033599854,275.85418033599854,275.85418033599854,275.85418033599854,275.85418033599854,275.85418033599854,275.85418033599854,278.2371754646301,2,2.5079171657562256,None,,,,,,,,,,,,,,,,,,1,1,2025-02-11_14h46.12.418,comp,2024.2.5,None,2025-02-11 14h46.21.291316 -0500,
131,131,0,critical,wdh,45.0,1.0,lower,57.0,133.0,65.0,65.0,133.0,57.0,1,2.463491439819336,None,,,,,0,0,0,0,0,131,131,72,278.2526376247406,,,,,,,,,,,,,,,,,,,,,,,,,,,,,,,,,,,,,,,,,,,,,,,,,,,,,,,,,,,,,,,,,,,,,,,,,,,,,,,,,57.0,133.0,65.0,65.0,133.0,57.0,1.0,1.3,285,-273,480,-273,637,-265,278.23867654800415,278.2387549877167,278.2423756122589,278.2526376247406,278.4048933982849,278.4048933982849,278.4048933982849,278.4048933982849,278.4048933982849,278.4048933982849,278.4048933982849,280.7222685813904,1,2.463491439819336,None,,,,,,,,,,,,,,,,,,1,1,2025-02-11_14h46.12.418,comp,2024.2.5,None,2025-02-11 14h46.21.291316 -0500,
132,132,0,filler_square,None,None,None,None,None,None,None,None,None,None,3,2.409301519393921,None,,,,,0,0,0,0,0,132,132,192,280.73876881599426,,,,,,,,,,,,,,,,,,,,,,,,,,,,,,,,,,,,,,,,,,,,,,,,,,,,,,,,,,,,,,,,,,,,,,,,,,,,,,,,,66.29903302993273,66.71332358696682,94.63881058243018,106.09804665087881,115.9064796534387,115.9064796534387,2.1,2.11,-182,251,0,283,207,-257,280.72429895401,280.72437715530396,280.7277970314026,280.73876881599426,280.8870267868042,280.8870267868042,280.8870267868042,280.8870267868042,280.8870267868042,280.8870267868042,280.8870267868042,283.15674471855164,3,2.409301519393921,None,,,,,,,,,,,,,,,,,,1,1,2025-02-11_14h46.12.418,comp,2024.2.5,None,2025-02-11 14h46.21.291316 -0500,
133,133,0,catch,None,None,None,None,None,None,None,None,None,None,1,1.049433946609497,None,,,,,0,0,0,0,0,133,133,128,283.177850484848,,,,,,,,,,,,,,,,,,,,,,,,,,,,,,,,,,,,,,,,,,,,,,,,,,,,,,,,,,,,,,,,,,,,,,,,,,,,,,,,,181,144,63,127,87,103,1.0,1.2,-232,-8,0,17,211,3,283.1587941646576,283.15887331962585,283.16207337379456,283.177850484848,283.3329346179962,283.3329346179962,283.3329346179962,283.3329346179962,283.3329346179962,283.3329346179962,283.3329346179962,284.24062967300415,1,1.049433946609497,None,,,,,,,,,,,,,,,,,,1,1,2025-02-11_14h46.12.418,comp,2024.2.5,None,2025-02-11 14h46.21.291316 -0500,
134,134,0,critical,dwh,60.0,2.1,upper,100.0,100.0,125.0,200.0,200.0,125.0,2,0.8507752418518066,None,,,,,0,0,0,0,0,134,134,31,284.2567410469055,,,,,,,,,,,,,,,,,,,,,,,,,,,,,,,,,,,,,,,,,,,,,,,,,,,,,,,,,,,,,,,,,,,,,,,,,,,,,,,,,100.0,100.0,125.0,200.0,200.0,125.0,2.1,2.11,-246,254,0,255,258,-264,284.24232959747314,284.2424318790436,284.2464213371277,284.2567410469055,284.411447763443,284.411447763443,284.411447763443,284.411447763443,284.411447763443,284.411447763443,284.411447763443,285.1239609718323,2,0.8507752418518066,None,,,,,,,,,,,,,,,,,,1,1,2025-02-11_14h46.12.418,comp,2024.2.5,None,2025-02-11 14h46.21.291316 -0500,
135,135,0,critical,wdh,60.0,2.1,upper,125.0,200.0,100.0,100.0,200.0,125.0,1,1.9357383251190186,None,,,,,0,0,0,0,0,135,135,35,285.1401810646057,,,,,,,,,,,,,,,,,,,,,,,,,,,,,,,,,,,,,,,,,,,,,,,,,,,,,,,,,,,,,,,,,,,,,,,,,,,,,,,,,125.0,200.0,100.0,100.0,200.0,125.0,2.1,2.12,-246,-268,0,-280,208,268,285.12549901008606,285.1256184577942,285.12972378730774,285.1401810646057,285.2894115447998,285.2894115447998,285.2894115447998,285.2894115447998,285.2894115447998,285.2894115447998,285.2894115447998,287.08351159095764,1,1.9357383251190186,None,,,,,,,,,,,,,,,,,,1,1,2025-02-11_14h46.12.418,comp,2024.2.5,None,2025-02-11 14h46.21.291316 -0500,
136,136,0,filler_random,None,None,None,None,None,None,None,None,None,None,2,1.0802617073059082,None,,,,,0,0,0,0,0,136,136,152,287.0998742580414,,,,,,,,,,,,,,,,,,,,,,,,,,,,,,,,,,,,,,,,,,,,,,,,,,,,,,,,,,,,,,,,,,,,,,,,,,,,,,,,,158.341647518476,128.63460028797957,183.68838866141203,190.7715089341125,123.99326726981238,119.18695139254496,4.0,4.2,-256,-16,0,-280,251,0,287.0851671695709,287.0852472782135,287.0882263183594,287.0998742580414,287.2387499809265,287.2387499809265,287.2387499809265,287.2387499809265,287.2387499809265,287.2387499809265,287.2387499809265,288.19150400161743,2,1.0802617073059082,None,,,,,,,,,,,,,,,,,,1,1,2025-02-11_14h46.12.418,comp,2024.2.5,None,2025-02-11 14h46.21.291316 -0500,
137,137,0,filler_random,None,None,None,None,None,None,None,None,None,None,2,1.0272881984710693,None,,,,,0,0,0,0,0,137,137,136,288.2083692550659,,,,,,,,,,,,,,,,,,,,,,,,,,,,,,,,,,,,,,,,,,,,,,,,,,,,,,,,,,,,,,,,,,,,,,,,,,,,,,,,,101.76565927243468,147.02698908027625,141.76000450899318,159.96129328651682,66.1117578948322,193.8817312018276,2.2,2.21,-249,-275,0,281,273,253,288.19347381591797,288.19360876083374,288.1976079940796,288.2083692550659,288.3569858074188,288.3569858074188,288.3569858074188,288.3569858074188,288.3569858074188,288.3569858074188,288.3569858074188,289.24416875839233,2,1.0272881984710693,None,,,,,,,,,,,,,,,,,,1,1,2025-02-11_14h46.12.418,comp,2024.2.5,None,2025-02-11 14h46.21.291316 -0500,
138,138,0,critical,dwh,60.0,3.0,lower,55.0,55.0,57.0,133.0,133.0,57.0,3,1.1753838062286377,None,,,,,0,0,0,0,0,138,138,68,289.2603178024292,,,,,,,,,,,,,,,,,,,,,,,,,,,,,,,,,,,,,,,,,,,,,,,,,,,,,,,,,,,,,,,,,,,,,,,,,,,,,,,,,55.0,55.0,57.0,133.0,133.0,57.0,3.0,3.2,-190,-273,0,-1,191,274,289.2459964752197,289.246169090271,289.2493665218353,289.2603178024292,289.40560126304626,289.40560126304626,289.40560126304626,289.40560126304626,289.40560126304626,289.40560126304626,289.40560126304626,290.4409394264221,3,1.1753838062286377,None,,,,,,,,,,,,,,,,,,1,1,2025-02-11_14h46.12.418,comp,2024.2.5,None,2025-02-11 14h46.21.291316 -0500,
139,139,0,filler_random,None,None,None,None,None,None,None,None,None,None,2,1.122154951095581,None,,,,,0,0,0,0,0,139,139,139,290.4570095539093,,,,,,,,,,,,,,,,,,,,,,,,,,,,,,,,,,,,,,,,,,,,,,,,,,,,,,,,,,,,,,,,,,,,,,,,,,,,,,,,,162.07549733442144,102.7798946688688,153.38541685325634,115.14562401984455,116.61612212034174,95.56616058164897,3.0,3.2,-205,-260,0,9,201,287,290.442754983902,290.4428668022156,290.44630789756775,290.4570095539093,290.6057207584381,290.6057207584381,290.6057207584381,290.6057207584381,290.6057207584381,290.6057207584381,290.6057207584381,291.59240794181824,2,1.122154951095581,None,,,,,,,,,,,,,,,,,,1,1,2025-02-11_14h46.12.418,comp,2024.2.5,None,2025-02-11 14h46.21.291316 -0500,
140,140,0,filler_random,None,None,None,None,None,None,None,None,None,None,2,1.217752456665039,None,,,,,0,0,0,0,0,140,140,131,291.6092426776886,,,,,,,,,,,,,,,,,,,,,,,,,,,,,,,,,,,,,,,,,,,,,,,,,,,,,,,,,,,,,,,,,,,,,,,,,,,,,,,,,69.13876201322321,71.91997948824964,109.99686138479242,61.073794016378145,87.8128041561732,110.63878879572093,1.0,1.3,318,-278,480,-274,662,-275,291.5941445827484,291.59427189826965,291.5973291397095,291.6092426776886,291.7566032409668,291.7566032409668,291.7566032409668,291.7566032409668,291.7566032409668,291.7566032409668,291.7566032409668,292.8413989543915,2,1.217752456665039,None,,,,,,,,,,,,,,,,,,1,1,2025-02-11_14h46.12.418,comp,2024.2.5,None,2025-02-11 14h46.21.291316 -0500,
141,141,0,filler_square,None,None,None,None,None,None,None,None,None,None,3,0.857607364654541,None,,,,,0,0,0,0,0,141,141,201,292.85734605789185,,,,,,,,,,,,,,,,,,,,,,,,,,,,,,,,,,,,,,,,,,,,,,,,,,,,,,,,,,,,,,,,,,,,,,,,,,,,,,,,,131.21679403025234,85.73198454039978,83.92637423522517,103.03382690138551,157.32362894888436,157.32362894888436,3.0,3.1,-190,284,0,-5,226,-276,292.8432548046112,292.8433349132538,292.8467552661896,292.85734605789185,293.0050482749939,293.0050482749939,293.0050482749939,293.0050482749939,293.0050482749939,293.0050482749939,293.0050482749939,293.7261040210724,3,0.857607364654541,None,,,,,,,,,,,,,,,,,,1,1,2025-02-11_14h46.12.418,comp,2024.2.5,None,2025-02-11 14h46.21.291316 -0500,
142,142,0,critical,hdw,45.0,2.1,upper,200.0,125.0,117.0,117.0,125.0,200.0,3,1.5011265277862549,None,,,,,0,0,0,0,0,142,142,45,293.7418329715729,,,,,,,,,,,,,,,,,,,,,,,,,,,,,,,,,,,,,,,,,,,,,,,,,,,,,,,,,,,,,,,,,,,,,,,,,,,,,,,,,200.0,125.0,117.0,117.0,125.0,200.0,2.1,2.12,-217,-279,0,-286,254,263,293.7276930809021,293.72777485847473,293.7312397956848,293.7418329715729,293.8911838531494,293.8911838531494,293.8911838531494,293.8911838531494,293.8911838531494,293.8911838531494,293.8911838531494,295.2573010921478,3,1.5011265277862549,None,,,,,,,,,,,,,,,,,,1,1,2025-02-11_14h46.12.418,comp,2024.2.5,None,2025-02-11 14h46.21.291316 -0500,
