thisN,thisTrialN,thisRepN,effect,order,distance,config,diag,h_1,w_1,h_2,w_2,h_3,w_3,rect_choice.keys,rect_choice.rt,rect_choice.duration,instructions_loop.thisRepN,instructions_loop.thisTrialN,instructions_loop.thisN,instructions_loop.thisIndex,blocks.thisRepN,blocks.thisTrialN,blocks.thisN,blocks.thisIndex,trials.thisRepN,trials.thisTrialN,trials.thisN,trials.thisIndex,thisRow.t,notes,consent.started,agree_button.started,decline_button.started,consent_img.started,mouse.started,consent.stopped,agree_button.numClicks,agree_button.timesOn,agree_button.timesOff,decline_button.numClicks,decline_button.timesOn,decline_button.timesOff,mouse.x,mouse.y,mouse.leftButton,mouse.midButton,mouse.rightButton,mouse.time,mouse.clicked_name,exp_params.started,exp_params.stopped,welcome.started,welcome_text.started,welcome.stopped,instructions_1.started,instructions_1_text_1.started,instructions_1_text_2.started,key_resp.started,instructions_1.stopped,instructions_loop.key_resp.keys,instructions_loop.key_resp.rt,instructions_loop.key_resp.duration,instructions_2.started,instructions_2_text_1.started,instructions_2_text_2.started,key_resp_2.started,instructions_2.stopped,instructions_loop.key_resp_2.keys,instructions_loop.key_resp_2.rt,instructions_loop.key_resp_2.duration,instructions_3.started,instructions_3_text_1.started,r1_instr3.started,r2_instr3.started,r3_instr3.started,r1_instr3_label.started,r2_instr3_label.started,r3_instr3_label.started,instructions_3_text_3.started,instructions_3_text_4.started,key_resp_3.started,instructions_3.stopped,instructions_loop.key_resp_3.keys,instructions_loop.key_resp_3.rt,instructions_loop.key_resp_3.duration,instructions_4.started,instructions_4_text_1.started,instructions_4_text_3.started,instructions_4_text_2.started,key_resp_4.started,instructions_4.stopped,instructions_loop.key_resp_4.keys,instructions_loop.key_resp_4.rt,instructions_loop.key_resp_4.duration,instructions_5.started,instructions_5_text_1.started,instructions_5_text_2.started,key_resp_5.started,instructions_5.stopped,instructions_loop.key_resp_5.keys,instructions_loop.key_resp_5.rt,instructions_loop.key_resp_5.duration,start_exp.started,start_exp_text.started,key_resp_6.started,start_exp.stopped,key_resp_6.keys,key_resp_6.rt,key_resp_6.duration,h_1_tmp,w_1_tmp,h_2_tmp,w_2_tmp,h_3_tmp,w_3_tmp,config_tmp,config_tmp_1,r_1_x,r_1_y,r_2_x,r_2_y,r_3_x,r_3_y,pre_trial.started,pre_trial.stopped,choice_trial.started,rect_choice.started,r_1.started,r_2.started,r_3.started,r_1_label.started,r_2_label.started,r_3_label.started,prompt.started,choice_trial.stopped,trials.rect_choice.keys,trials.rect_choice.rt,trials.rect_choice.duration,end_block.started,end_block_text.started,end_block.stopped,end.started,end_text.started,key_resp_7.started,end.stopped,key_resp_7.keys,key_resp_7.rt,key_resp_7.duration,debriefing.started,debrief_form.started,end_debrief.started,debriefing.stopped,end_debrief.keys,end_debrief.rt,end_debrief.duration,participant,computer,date,expName,psychopyVersion,frameRate,expStart,
,,,,,,,,,,,,,,,,,,,,,,,,,,,,,,,0.023319721221923828,0.044066667556762695,0.044066667556762695,0.044066667556762695,0.023114442825317383,14.64450192451477,1,[14.597634553909302],[14.597657203674316],0,,,[-101.0],[-491.0],[1],[0],[0],[14.620757818222046],['agree_button'],,,,,,,,,,,,,,,,,,,,,,,,,,,,,,,,,,,,,,,,,,,,,,,,,,,,,,,,,,,,,,,,,,,,,,,,,,,,,,,,,,,,,,,,,,,,,,,,,,,,,,,,,,,2,1,2025-02-11_14h52.07.220,comp,2024.2.5,56.739820648064104,2025-02-11 14h52.15.414472 -0500,
,,,,,,,,,,,,,,,,,,,,,,,,,,,,,,,,,,,,,,,,,,,,,,,,,,14.645199060440063,14.645269393920898,,,,,,,,,,,,,,,,,,,,,,,,,,,,,,,,,,,,,,,,,,,,,,,,,,,,,,,,,,,,,,,,,,,,,,,,,,,,,,,,,,,,,,,,,,,,,,,,,,,,,,,,,2,1,2025-02-11_14h52.07.220,comp,2024.2.5,56.739820648064104,2025-02-11 14h52.15.414472 -0500,
,,,,,,,,,,,,,,,,,,,,,,,,,,,,,,,,,,,,,,,,,,,,,,,,,,,,14.645316362380981,14.671436786651611,16.655755043029785,,,,,,,,,,,,,,,,,,,,,,,,,,,,,,,,,,,,,,,,,,,,,,,,,,,,,,,,,,,,,,,,,,,,,,,,,,,,,,,,,,,,,,,,,,,,,,,,,,,,,,2,1,2025-02-11_14h52.07.220,comp,2024.2.5,56.739820648064104,2025-02-11 14h52.15.414472 -0500,
0,0,0,,,,,,,,,,,,,,,0,0,0,0,,,,,,,,,16.673715591430664,,,,,,,,,,,,,,,,,,,,,,,,,,16.656747102737427,16.673715591430664,16.673715591430664,18.154872179031372,22.12942385673523,space,3.9502782821655273,None,22.12956476211548,22.146814107894897,22.146814107894897,23.643540382385254,27.66269826889038,space,4.005120277404785,None,27.662880420684814,27.713139295578003,27.713139295578003,27.713139295578003,27.713139295578003,27.713139295578003,27.713139295578003,27.713139295578003,27.713139295578003,27.713139295578003,29.164530992507935,35.296934843063354,space,6.125046968460083,None,35.297093629837036,35.314448833465576,35.314448833465576,35.314448833465576,36.7977032661438,42.299161434173584,space,5.499403953552246,None,42.29931592941284,42.314077615737915,42.314077615737915,43.79991292953491,44.30176854133606,space,0.4891338348388672,None,44.301989793777466,44.317638635635376,44.317638635635376,45.65175938606262,space,1.3309597969055176,None,,,,,,,,,,,,,,,,,,,,,,,,,,,,,,,,,,,,,,,,,,,,,,,2,1,2025-02-11_14h52.07.220,comp,2024.2.5,56.739820648064104,2025-02-11 14h52.15.414472 -0500,
0,0,0,critical,dhw,45.0,3.0,upper,117.0,117.0,200.0,125.0,125.0,200.0,3,3.076479434967041,None,,,,,0,0,0,0,0,0,0,51,45.828704595565796,,,,,,,,,,,,,,,,,,,,,,,,,,,,,,,,,,,,,,,,,,,,,,,,,,,,,,,,,,,,,,,,,,,,,,,,,,,,,,,,,117.0,117.0,200.0,125.0,125.0,200.0,3.0,3.2,-217,-273,0,-4,258,262,45.81239056587219,45.81243062019348,45.81381273269653,45.828704595565796,45.97409200668335,45.97409200668335,45.97409200668335,45.97409200668335,45.97409200668335,45.97409200668335,45.97409200668335,48.91321682929993,3,3.076479434967041,None,,,,,,,,,,,,,,,,,,2,1,2025-02-11_14h52.07.220,comp,2024.2.5,56.739820648064104,2025-02-11 14h52.15.414472 -0500,
1,1,0,filler_random,None,None,None,None,None,None,None,None,None,None,3,14.82210922241211,None,,,,,0,0,0,0,0,1,1,160,48.93177556991577,,,,,,,,,,,,,,,,,,,,,,,,,,,,,,,,,,,,,,,,,,,,,,,,,,,,,,,,,,,,,,,,,,,,,,,,,,,,,,,,,105.24191994949828,145.59389676632549,152.70006695658049,60.61711272720512,98.17365122677735,142.02184846642263,3.0,3.1,-199,256,0,-11,197,-278,48.915104150772095,48.91518425941467,48.918416261672974,48.93177556991577,49.06964087486267,49.06964087486267,49.06964087486267,49.06964087486267,49.06964087486267,49.06964087486267,49.06964087486267,63.760204553604126,3,14.82210922241211,None,,,,,,,,,,,,,,,,,,2,1,2025-02-11_14h52.07.220,comp,2024.2.5,56.739820648064104,2025-02-11 14h52.15.414472 -0500,
2,2,0,critical,dhw,45.0,4.0,upper,117.0,117.0,200.0,125.0,125.0,200.0,2,1.7614891529083252,None,,,,,0,0,0,0,0,2,2,53,63.77626276016235,,,,,,,,,,,,,,,,,,,,,,,,,,,,,,,,,,,,,,,,,,,,,,,,,,,,,,,,,,,,,,,,,,,,,,,,,,,,,,,,,117.0,117.0,200.0,125.0,125.0,200.0,4.0,4.2,-217,-10,0,-251,258,-12,63.76238012313843,63.762516260147095,63.765517473220825,63.77626276016235,63.92516732215881,63.92516732215881,63.92516732215881,63.92516732215881,63.92516732215881,63.92516732215881,63.92516732215881,65.54323887825012,2,1.7614891529083252,None,,,,,,,,,,,,,,,,,,2,1,2025-02-11_14h52.07.220,comp,2024.2.5,56.739820648064104,2025-02-11 14h52.15.414472 -0500,
3,3,0,catch,None,None,None,None,None,None,None,None,None,None,2,1.2741756439208984,None,,,,,0,0,0,0,0,3,3,125,65.5593364238739,,,,,,,,,,,,,,,,,,,,,,,,,,,,,,,,,,,,,,,,,,,,,,,,,,,,,,,,,,,,,,,,,,,,,,,,,,,,,,,,,127,63,175,150,75,115,2.1,2.11,-202,275,0,262,228,-289,65.54544806480408,65.54553318023682,65.54868054389954,65.5593364238739,65.7080729007721,65.7080729007721,65.7080729007721,65.7080729007721,65.7080729007721,65.7080729007721,65.7080729007721,66.84345173835754,2,1.2741756439208984,None,,,,,,,,,,,,,,,,,,2,1,2025-02-11_14h52.07.220,comp,2024.2.5,56.739820648064104,2025-02-11 14h52.15.414472 -0500,
4,4,0,filler_random,None,None,None,None,None,None,None,None,None,None,3,1.4449055194854736,None,,,,,0,0,0,0,0,4,4,132,66.85995864868164,,,,,,,,,,,,,,,,,,,,,,,,,,,,,,,,,,,,,,,,,,,,,,,,,,,,,,,,,,,,,,,,,,,,,,,,,,,,,,,,,122.96531993611733,170.36270801281393,121.28397719904173,118.16721780614577,131.6408275248284,178.96843777102077,2.2,2.22,-240,254,0,-286,245,-288,66.84545254707336,66.84553575515747,66.84905433654785,66.85995864868164,67.00909662246704,67.00909662246704,67.00909662246704,67.00909662246704,67.00909662246704,67.00909662246704,67.00909662246704,68.3180639743805,3,1.4449055194854736,None,,,,,,,,,,,,,,,,,,2,1,2025-02-11_14h52.07.220,comp,2024.2.5,56.739820648064104,2025-02-11 14h52.15.414472 -0500,
5,5,0,critical,dwh,45.0,3.0,upper,117.0,117.0,125.0,200.0,200.0,125.0,2,4.509938478469849,None,,,,,0,0,0,0,0,5,5,63,68.33089876174927,,,,,,,,,,,,,,,,,,,,,,,,,,,,,,,,,,,,,,,,,,,,,,,,,,,,,,,,,,,,,,,,,,,,,,,,,,,,,,,,,117.0,117.0,125.0,200.0,200.0,125.0,3.0,3.1,-254,259,0,-20,258,-269,68.31913161277771,68.31915330886841,68.31992864608765,68.33089876174927,68.47780156135559,68.47780156135559,68.47780156135559,68.47780156135559,68.47780156135559,68.47780156135559,68.47780156135559,72.84484601020813,2,4.509938478469849,None,,,,,,,,,,,,,,,,,,2,1,2025-02-11_14h52.07.220,comp,2024.2.5,56.739820648064104,2025-02-11 14h52.15.414472 -0500,
6,6,0,filler_square,None,None,None,None,None,None,None,None,None,None,2,1.7721900939941406,None,,,,,0,0,0,0,0,6,6,175,72.86143708229065,,,,,,,,,,,,,,,,,,,,,,,,,,,,,,,,,,,,,,,,,,,,,,,,,,,,,,,,,,,,,,,,,,,,,,,,,,,,,,,,,104.63173867291357,170.31897972589968,196.4668365947545,196.4668365947545,132.0073925190012,194.98185337657677,3.0,3.1,-279,259,0,5,292,-274,72.84702181816101,72.8471052646637,72.85051345825195,72.86143708229065,73.01326441764832,73.01326441764832,73.01326441764832,73.01326441764832,73.01326441764832,73.01326441764832,73.01326441764832,74.64204168319702,2,1.7721900939941406,None,,,,,,,,,,,,,,,,,,2,1,2025-02-11_14h52.07.220,comp,2024.2.5,56.739820648064104,2025-02-11 14h52.15.414472 -0500,
7,7,0,critical,hdw,60.0,4.0,lower,133.0,57.0,55.0,55.0,57.0,133.0,1,2.5577938556671143,None,,,,,0,0,0,0,0,7,7,118,74.65914416313171,,,,,,,,,,,,,,,,,,,,,,,,,,,,,,,,,,,,,,,,,,,,,,,,,,,,,,,,,,,,,,,,,,,,,,,,,,,,,,,,,133.0,57.0,55.0,55.0,57.0,133.0,4.0,4.1,-152,-269,0,11,190,-287,74.64351081848145,74.6435935497284,74.64642834663391,74.65914416313171,74.79402232170105,74.79402232170105,74.79402232170105,74.79402232170105,74.79402232170105,74.79402232170105,74.79402232170105,77.22776508331299,1,2.5577938556671143,None,,,,,,,,,,,,,,,,,,2,1,2025-02-11_14h52.07.220,comp,2024.2.5,56.739820648064104,2025-02-11 14h52.15.414472 -0500,
8,8,0,critical,dhw,60.0,3.0,upper,100.0,100.0,200.0,125.0,125.0,200.0,3,1.9558029174804688,None,,,,,0,0,0,0,0,8,8,57,77.24677753448486,,,,,,,,,,,,,,,,,,,,,,,,,,,,,,,,,,,,,,,,,,,,,,,,,,,,,,,,,,,,,,,,,,,,,,,,,,,,,,,,,100.0,100.0,200.0,125.0,125.0,200.0,3.0,3.2,-208,-271,0,-9,258,262,77.22930574417114,77.22938632965088,77.23257446289062,77.24677753448486,77.39541888237,77.39541888237,77.39541888237,77.39541888237,77.39541888237,77.39541888237,77.39541888237,79.21322655677795,3,1.9558029174804688,None,,,,,,,,,,,,,,,,,,2,1,2025-02-11_14h52.07.220,comp,2024.2.5,56.739820648064104,2025-02-11 14h52.15.414472 -0500,
9,9,0,critical,dhw,60.0,1.0,upper,100.0,100.0,200.0,125.0,125.0,200.0,2,5.108829975128174,None,,,,,0,0,0,0,0,9,9,55,79.22918224334717,,,,,,,,,,,,,,,,,,,,,,,,,,,,,,,,,,,,,,,,,,,,,,,,,,,,,,,,,,,,,,,,,,,,,,,,,,,,,,,,,100.0,100.0,200.0,125.0,125.0,200.0,1.0,1.1,-688,261,-480,289,-222,276,79.21476864814758,79.21489000320435,79.21832799911499,79.22918224334717,79.38095164299011,79.38095164299011,79.38095164299011,79.38095164299011,79.38095164299011,79.38095164299011,79.38095164299011,84.34793472290039,2,5.108829975128174,None,,,,,,,,,,,,,,,,,,2,1,2025-02-11_14h52.07.220,comp,2024.2.5,56.739820648064104,2025-02-11 14h52.15.414472 -0500,
10,10,0,critical,hwd,45.0,3.0,upper,200.0,125.0,125.0,200.0,117.0,117.0,1,2.6141741275787354,None,,,,,0,0,0,0,0,10,10,99,84.36370396614075,,,,,,,,,,,,,,,,,,,,,,,,,,,,,,,,,,,,,,,,,,,,,,,,,,,,,,,,,,,,,,,,,,,,,,,,,,,,,,,,,200.0,125.0,125.0,200.0,117.0,117.0,3.0,3.1,-258,260,0,-16,254,-253,84.34952855110168,84.34961318969727,84.35299682617188,84.36370396614075,84.51199650764465,84.51199650764465,84.51199650764465,84.51199650764465,84.51199650764465,84.51199650764465,84.51199650764465,86.98465394973755,1,2.6141741275787354,None,,,,,,,,,,,,,,,,,,2,1,2025-02-11_14h52.07.220,comp,2024.2.5,56.739820648064104,2025-02-11 14h52.15.414472 -0500,
11,11,0,filler_square,None,None,None,None,None,None,None,None,None,None,3,2.0866281986236572,None,,,,,0,0,0,0,0,11,11,190,87.00357222557068,,,,,,,,,,,,,,,,,,,,,,,,,,,,,,,,,,,,,,,,,,,,,,,,,,,,,,,,,,,,,,,,,,,,,,,,,,,,,,,,,116.85198080016988,74.47586745319569,81.55712930888171,96.1648980660126,129.91755149998284,129.91755149998284,2.2,2.21,-181,-269,0,283,209,282,86.98671007156372,86.98685121536255,86.98980593681335,87.00357222557068,87.14875102043152,87.14875102043152,87.14875102043152,87.14875102043152,87.14875102043152,87.14875102043152,87.14875102043152,89.10041499137878,3,2.0866281986236572,None,,,,,,,,,,,,,,,,,,2,1,2025-02-11_14h52.07.220,comp,2024.2.5,56.739820648064104,2025-02-11 14h52.15.414472 -0500,
12,12,0,filler_square,None,None,None,None,None,None,None,None,None,None,2,3.1005866527557373,None,,,,,0,0,0,0,0,12,12,193,89.11640214920044,,,,,,,,,,,,,,,,,,,,,,,,,,,,,,,,,,,,,,,,,,,,,,,,,,,,,,,,,,,,,,,,,,,,,,,,,,,,,,,,,58.714744528183594,68.49852796265286,84.78326107884716,84.78326107884716,60.458741000380996,84.5410797383434,2.2,2.22,-173,283,0,-286,181,-269,89.10230755805969,89.10238862037659,89.1056478023529,89.11640214920044,89.26447772979736,89.26447772979736,89.26447772979736,89.26447772979736,89.26447772979736,89.26447772979736,89.26447772979736,92.23301386833191,2,3.1005866527557373,None,,,,,,,,,,,,,,,,,,2,1,2025-02-11_14h52.07.220,comp,2024.2.5,56.739820648064104,2025-02-11 14h52.15.414472 -0500,
13,13,0,filler_random,None,None,None,None,None,None,None,None,None,None,1,1.8439419269561768,None,,,,,0,0,0,0,0,13,13,130,92.25316953659058,,,,,,,,,,,,,,,,,,,,,,,,,,,,,,,,,,,,,,,,,,,,,,,,,,,,,,,,,,,,,,,,,,,,,,,,,,,,,,,,,157.65359750178834,132.01472546503436,142.35395628858743,110.16121563070482,194.7402646841025,70.26564553991523,3.0,3.1,-217,262,0,3,186,-257,92.23486375808716,92.23500490188599,92.23830962181091,92.25316953659058,92.39998960494995,92.39998960494995,92.39998960494995,92.39998960494995,92.39998960494995,92.39998960494995,92.39998960494995,94.101003408432,1,1.8439419269561768,None,,,,,,,,,,,,,,,,,,2,1,2025-02-11_14h52.07.220,comp,2024.2.5,56.739820648064104,2025-02-11 14h52.15.414472 -0500,
14,14,0,filler_square,None,None,None,None,None,None,None,None,None,None,2,1.5738215446472168,None,,,,,0,0,0,0,0,14,14,201,94.11577868461609,,,,,,,,,,,,,,,,,,,,,,,,,,,,,,,,,,,,,,,,,,,,,,,,,,,,,,,,,,,,,,,,,,,,,,,,,,,,,,,,,64.08048941762694,66.65354452411385,141.36137975858853,141.36137975858853,120.92391702449589,138.73321725983448,1.0,1.3,280,-287,480,-283,716,-286,94.10289359092712,94.10297441482544,94.10619497299194,94.11577868461609,94.26933789253235,94.26933789253235,94.26933789253235,94.26933789253235,94.26933789253235,94.26933789253235,94.26933789253235,95.70119976997375,2,1.5738215446472168,None,,,,,,,,,,,,,,,,,,2,1,2025-02-11_14h52.07.220,comp,2024.2.5,56.739820648064104,2025-02-11 14h52.15.414472 -0500,
15,15,0,critical,hdw,60.0,1.0,upper,200.0,125.0,100.0,100.0,125.0,200.0,1,1.5822107791900635,None,,,,,0,0,0,0,0,15,15,115,95.71560621261597,,,,,,,,,,,,,,,,,,,,,,,,,,,,,,,,,,,,,,,,,,,,,,,,,,,,,,,,,,,,,,,,,,,,,,,,,,,,,,,,,200.0,125.0,100.0,100.0,125.0,200.0,1.0,1.2,-208,12,0,-1,246,-19,95.70276498794556,95.70287942886353,95.70608615875244,95.71560621261597,95.86905169487,95.86905169487,95.86905169487,95.86905169487,95.86905169487,95.86905169487,95.86905169487,97.30119180679321,1,1.5822107791900635,None,,,,,,,,,,,,,,,,,,2,1,2025-02-11_14h52.07.220,comp,2024.2.5,56.739820648064104,2025-02-11 14h52.15.414472 -0500,
16,16,0,filler_square,None,None,None,None,None,None,None,None,None,None,1,1.604741096496582,None,,,,,0,0,0,0,0,16,16,189,97.31713914871216,,,,,,,,,,,,,,,,,,,,,,,,,,,,,,,,,,,,,,,,,,,,,,,,,,,,,,,,,,,,,,,,,,,,,,,,,,,,,,,,,179.20362301523068,179.20362301523068,136.31515469822406,63.68375100388339,163.80872751500783,128.4827155624651,4.0,4.1,-217,-278,0,-1,192,-270,97.30302786827087,97.30310869216919,97.30599093437195,97.31713914871216,97.46581292152405,97.46581292152405,97.46581292152405,97.46581292152405,97.46581292152405,97.46581292152405,97.46581292152405,98.92901968955994,1,1.604741096496582,None,,,,,,,,,,,,,,,,,,2,1,2025-02-11_14h52.07.220,comp,2024.2.5,56.739820648064104,2025-02-11 14h52.15.414472 -0500,
17,17,0,filler_square,None,None,None,None,None,None,None,None,None,None,2,1.1031675338745117,None,,,,,0,0,0,0,0,17,17,178,98.94671034812927,,,,,,,,,,,,,,,,,,,,,,,,,,,,,,,,,,,,,,,,,,,,,,,,,,,,,,,,,,,,,,,,,,,,,,,,,,,,,,,,,87.91058688437286,110.61046320620133,191.8885523362815,191.8885523362815,165.51354399757287,84.69271506045307,2.2,2.22,-247,269,0,-276,234,-283,98.93086266517639,98.93094277381897,98.93378329277039,98.94671034812927,99.08457660675049,99.08457660675049,99.08457660675049,99.08457660675049,99.08457660675049,99.08457660675049,99.08457660675049,100.05490970611572,2,1.1031675338745117,None,,,,,,,,,,,,,,,,,,2,1,2025-02-11_14h52.07.220,comp,2024.2.5,56.739820648064104,2025-02-11 14h52.15.414472 -0500,
18,18,0,catch,None,None,None,None,None,None,None,None,None,None,3,1.601586103439331,None,,,,,0,0,0,0,0,18,18,129,100.07164883613586,,,,,,,,,,,,,,,,,,,,,,,,,,,,,,,,,,,,,,,,,,,,,,,,,,,,,,,,,,,,,,,,,,,,,,,,,,,,,,,,,66,124,65,125,162,163,1.0,1.3,260,-284,480,-280,720,-283,100.0570719242096,100.05715799331665,100.06070041656494,100.07164883613586,100.22237396240234,100.22237396240234,100.22237396240234,100.22237396240234,100.22237396240234,100.22237396240234,100.22237396240234,101.68856978416443,3,1.601586103439331,None,,,,,,,,,,,,,,,,,,2,1,2025-02-11_14h52.07.220,comp,2024.2.5,56.739820648064104,2025-02-11 14h52.15.414472 -0500,
19,19,0,critical,wdh,45.0,1.0,lower,57.0,133.0,65.0,65.0,133.0,57.0,1,3.168705701828003,None,,,,,0,0,0,0,0,19,19,72,101.70441722869873,,,,,,,,,,,,,,,,,,,,,,,,,,,,,,,,,,,,,,,,,,,,,,,,,,,,,,,,,,,,,,,,,,,,,,,,,,,,,,,,,57.0,133.0,65.0,65.0,133.0,57.0,1.0,1.2,-195,5,0,3,157,-9,101.69021201133728,101.69029116630554,101.69413256645203,101.70441722869873,101.85133290290833,101.85133290290833,101.85133290290833,101.85133290290833,101.85133290290833,101.85133290290833,101.85133290290833,104.8865020275116,1,3.168705701828003,None,,,,,,,,,,,,,,,,,,2,1,2025-02-11_14h52.07.220,comp,2024.2.5,56.739820648064104,2025-02-11 14h52.15.414472 -0500,
20,20,0,critical,whd,60.0,1.0,upper,125.0,200.0,200.0,125.0,100.0,100.0,1,2.4029271602630615,None,,,,,0,0,0,0,0,20,20,91,104.90249633789062,,,,,,,,,,,,,,,,,,,,,,,,,,,,,,,,,,,,,,,,,,,,,,,,,,,,,,,,,,,,,,,,,,,,,,,,,,,,,,,,,125.0,200.0,200.0,125.0,100.0,100.0,1.0,1.3,222,-277,480,-273,688,-262,104.88797807693481,104.88805627822876,104.89110064506531,104.90249633789062,105.05438709259033,105.05438709259033,105.05438709259033,105.05438709259033,105.05438709259033,105.05438709259033,105.05438709259033,107.32296466827393,1,2.4029271602630615,None,,,,,,,,,,,,,,,,,,2,1,2025-02-11_14h52.07.220,comp,2024.2.5,56.739820648064104,2025-02-11 14h52.15.414472 -0500,
21,21,0,critical,hdw,45.0,2.1,lower,133.0,57.0,65.0,65.0,57.0,133.0,3,2.062103033065796,None,,,,,0,0,0,0,0,21,21,20,107.33932614326477,,,,,,,,,,,,,,,,,,,,,,,,,,,,,,,,,,,,,,,,,,,,,,,,,,,,,,,,,,,,,,,,,,,,,,,,,,,,,,,,,133.0,57.0,65.0,65.0,57.0,133.0,2.1,2.12,-157,-255,0,-276,195,280,107.32459807395935,107.32472229003906,107.32839512825012,107.33932614326477,107.48740792274475,107.48740792274475,107.48740792274475,107.48740792274475,107.48740792274475,107.48740792274475,107.48740792274475,109.41325759887695,3,2.062103033065796,None,,,,,,,,,,,,,,,,,,2,1,2025-02-11_14h52.07.220,comp,2024.2.5,56.739820648064104,2025-02-11 14h52.15.414472 -0500,
22,22,0,critical,hwd,60.0,2.1,lower,133.0,57.0,57.0,133.0,55.0,55.0,2,3.7686734199523926,None,,,,,0,0,0,0,0,22,22,42,109.43339538574219,,,,,,,,,,,,,,,,,,,,,,,,,,,,,,,,,,,,,,,,,,,,,,,,,,,,,,,,,,,,,,,,,,,,,,,,,,,,,,,,,133.0,57.0,57.0,133.0,55.0,55.0,2.1,2.12,-191,-259,0,-261,190,265,109.41474103927612,109.41484022140503,109.41769456863403,109.43339538574219,109.57246541976929,109.57246541976929,109.57246541976929,109.57246541976929,109.57246541976929,109.57246541976929,109.57246541976929,113.20704436302185,2,3.7686734199523926,None,,,,,,,,,,,,,,,,,,2,1,2025-02-11_14h52.07.220,comp,2024.2.5,56.739820648064104,2025-02-11 14h52.15.414472 -0500,
23,23,0,critical,dhw,60.0,1.0,lower,55.0,55.0,133.0,57.0,57.0,133.0,3,2.274528741836548,None,,,,,0,0,0,0,0,23,23,54,113.22348022460938,,,,,,,,,,,,,,,,,,,,,,,,,,,,,,,,,,,,,,,,,,,,,,,,,,,,,,,,,,,,,,,,,,,,,,,,,,,,,,,,,55.0,55.0,133.0,57.0,57.0,133.0,1.0,1.3,328,-272,480,-276,671,-253,113.20873832702637,113.20890259742737,113.21256732940674,113.22348022460938,113.3731107711792,113.3731107711792,113.3731107711792,113.3731107711792,113.3731107711792,113.3731107711792,113.3731107711792,115.5081193447113,3,2.274528741836548,None,,,,,,,,,,,,,,,,,,2,1,2025-02-11_14h52.07.220,comp,2024.2.5,56.739820648064104,2025-02-11 14h52.15.414472 -0500,
24,24,0,critical,hwd,45.0,4.0,lower,133.0,57.0,57.0,133.0,65.0,65.0,2,4.078492641448975,None,,,,,0,0,0,0,0,24,24,100,115.52478742599487,,,,,,,,,,,,,,,,,,,,,,,,,,,,,,,,,,,,,,,,,,,,,,,,,,,,,,,,,,,,,,,,,,,,,,,,,,,,,,,,,133.0,57.0,57.0,133.0,65.0,65.0,4.0,4.1,-191,-281,0,-6,195,-265,115.50968980789185,115.50977158546448,115.51385450363159,115.52478742599487,115.67378520965576,115.67378520965576,115.67378520965576,115.67378520965576,115.67378520965576,115.67378520965576,115.67378520965576,119.60692834854126,2,4.078492641448975,None,,,,,,,,,,,,,,,,,,2,1,2025-02-11_14h52.07.220,comp,2024.2.5,56.739820648064104,2025-02-11 14h52.15.414472 -0500,
25,25,0,filler_square,None,None,None,None,None,None,None,None,None,None,2,1.216947317123413,None,,,,,0,0,0,0,0,25,25,184,119.62428164482117,,,,,,,,,,,,,,,,,,,,,,,,,,,,,,,,,,,,,,,,,,,,,,,,,,,,,,,,,,,,,,,,,,,,,,,,,,,,,,,,,65.38278465152872,59.30792994849999,87.20012638353779,87.20012638353779,80.9782814146493,69.55358706606198,2.1,2.11,-169,254,0,280,174,-252,119.6089882850647,119.6090714931488,119.61227226257324,119.62428164482117,119.77850365638733,119.77850365638733,119.77850365638733,119.77850365638733,119.77850365638733,119.77850365638733,119.77850365638733,120.85132455825806,2,1.216947317123413,None,,,,,,,,,,,,,,,,,,2,1,2025-02-11_14h52.07.220,comp,2024.2.5,56.739820648064104,2025-02-11 14h52.15.414472 -0500,
26,26,0,filler_square,None,None,None,None,None,None,None,None,None,None,3,1.1174633502960205,None,,,,,0,0,0,0,0,26,26,183,120.86854910850525,,,,,,,,,,,,,,,,,,,,,,,,,,,,,,,,,,,,,,,,,,,,,,,,,,,,,,,,,,,,,,,,,,,,,,,,,,,,,,,,,67.15806760570015,77.58695617556853,64.87362661779709,91.26657631271758,108.5839456871105,108.5839456871105,1.0,1.3,300,-256,480,-272,676,-255,120.85335350036621,120.85343384742737,120.85661053657532,120.86854910850525,121.00628972053528,121.00628972053528,121.00628972053528,121.00628972053528,121.00628972053528,121.00628972053528,121.00628972053528,121.99001216888428,3,1.1174633502960205,None,,,,,,,,,,,,,,,,,,2,1,2025-02-11_14h52.07.220,comp,2024.2.5,56.739820648064104,2025-02-11 14h52.15.414472 -0500,
27,27,0,critical,whd,60.0,3.0,lower,57.0,133.0,133.0,57.0,55.0,55.0,2,2.058689832687378,None,,,,,0,0,0,0,0,27,27,92,122.00657320022583,,,,,,,,,,,,,,,,,,,,,,,,,,,,,,,,,,,,,,,,,,,,,,,,,,,,,,,,,,,,,,,,,,,,,,,,,,,,,,,,,57.0,133.0,133.0,57.0,55.0,55.0,3.0,3.1,-191,264,0,16,152,-264,121.99149441719055,121.99157381057739,121.99449419975281,122.00657320022583,122.14970993995667,122.14970993995667,122.14970993995667,122.14970993995667,122.14970993995667,122.14970993995667,122.14970993995667,124.07695722579956,2,2.058689832687378,None,,,,,,,,,,,,,,,,,,2,1,2025-02-11_14h52.07.220,comp,2024.2.5,56.739820648064104,2025-02-11 14h52.15.414472 -0500,
28,28,0,filler_random,None,None,None,None,None,None,None,None,None,None,2,1.019463062286377,None,,,,,0,0,0,0,0,28,28,136,124.09391117095947,,,,,,,,,,,,,,,,,,,,,,,,,,,,,,,,,,,,,,,,,,,,,,,,,,,,,,,,,,,,,,,,,,,,,,,,,,,,,,,,,144.39590228546132,188.02297589584782,166.40401011472926,191.4949231857988,111.6631970215023,119.56003962190906,3.0,3.1,-286,282,0,-15,252,-267,124.07876062393188,124.07889199256897,124.08211660385132,124.09391117095947,124.24791097640991,124.24791097640991,124.24791097640991,124.24791097640991,124.24791097640991,124.24791097640991,124.24791097640991,125.12764835357666,2,1.019463062286377,None,,,,,,,,,,,,,,,,,,2,1,2025-02-11_14h52.07.220,comp,2024.2.5,56.739820648064104,2025-02-11 14h52.15.414472 -0500,
29,29,0,filler_random,None,None,None,None,None,None,None,None,None,None,3,1.1382577419281006,None,,,,,0,0,0,0,0,29,29,168,125.14315366744995,,,,,,,,,,,,,,,,,,,,,,,,,,,,,,,,,,,,,,,,,,,,,,,,,,,,,,,,,,,,,,,,,,,,,,,,,,,,,,,,,143.11917583852093,152.05476404846547,88.01363450393166,109.99265098699752,145.28874264663216,170.36104049011107,1.0,1.2,-227,13,0,11,236,13,125.12939715385437,125.12947988510132,125.13287210464478,125.14315366744995,125.29297113418579,125.29297113418579,125.29297113418579,125.29297113418579,125.29297113418579,125.29297113418579,125.29297113418579,126.29688906669617,3,1.1382577419281006,None,,,,,,,,,,,,,,,,,,2,1,2025-02-11_14h52.07.220,comp,2024.2.5,56.739820648064104,2025-02-11 14h52.15.414472 -0500,
30,30,0,critical,whd,45.0,2.1,upper,125.0,200.0,200.0,125.0,117.0,117.0,1,4.20846700668335,None,,,,,0,0,0,0,0,30,30,13,126.3128890991211,,,,,,,,,,,,,,,,,,,,,,,,,,,,,,,,,,,,,,,,,,,,,,,,,,,,,,,,,,,,,,,,,,,,,,,,,,,,,,,,,125.0,200.0,200.0,125.0,117.0,117.0,2.1,2.11,-258,287,0,271,217,-281,126.29860949516296,126.29869270324707,126.3025312423706,126.3128890991211,126.4607949256897,126.4607949256897,126.4607949256897,126.4607949256897,126.4607949256897,126.4607949256897,126.4607949256897,130.53858399391174,1,4.20846700668335,None,,,,,,,,,,,,,,,,,,2,1,2025-02-11_14h52.07.220,comp,2024.2.5,56.739820648064104,2025-02-11 14h52.15.414472 -0500,
31,31,0,filler_square,None,None,None,None,None,None,None,None,None,None,1,1.991255760192871,None,,,,,0,0,0,0,0,31,31,191,130.55456733703613,,,,,,,,,,,,,,,,,,,,,,,,,,,,,,,,,,,,,,,,,,,,,,,,,,,,,,,,,,,,,,,,,,,,,,,,,,,,,,,,,82.06651696143655,82.06651696143655,63.78948886191544,76.03687077666817,62.05530404189181,74.26802241749601,1.0,1.1,-655,276,-480,286,-309,253,130.54067873954773,130.54075837135315,130.54397797584534,130.55456733703613,130.69518876075745,130.69518876075745,130.69518876075745,130.69518876075745,130.69518876075745,130.69518876075745,130.69518876075745,132.56293368339539,1,1.991255760192871,None,,,,,,,,,,,,,,,,,,2,1,2025-02-11_14h52.07.220,comp,2024.2.5,56.739820648064104,2025-02-11 14h52.15.414472 -0500,
32,32,0,critical,whd,60.0,1.0,lower,57.0,133.0,133.0,57.0,55.0,55.0,2,1.4084422588348389,None,,,,,0,0,0,0,0,32,32,90,132.57851195335388,,,,,,,,,,,,,,,,,,,,,,,,,,,,,,,,,,,,,,,,,,,,,,,,,,,,,,,,,,,,,,,,,,,,,,,,,,,,,,,,,57.0,133.0,133.0,57.0,55.0,55.0,1.0,1.3,289,-261,480,-277,632,-280,132.56451749801636,132.56460618972778,132.56808972358704,132.57851195335388,132.730304479599,132.730304479599,132.730304479599,132.730304479599,132.730304479599,132.730304479599,132.730304479599,133.99809408187866,2,1.4084422588348389,None,,,,,,,,,,,,,,,,,,2,1,2025-02-11_14h52.07.220,comp,2024.2.5,56.739820648064104,2025-02-11 14h52.15.414472 -0500,
33,33,0,critical,whd,60.0,4.0,lower,57.0,133.0,133.0,57.0,55.0,55.0,1,3.3707616329193115,None,,,,,0,0,0,0,0,33,33,94,134.01455354690552,,,,,,,,,,,,,,,,,,,,,,,,,,,,,,,,,,,,,,,,,,,,,,,,,,,,,,,,,,,,,,,,,,,,,,,,,,,,,,,,,57.0,133.0,133.0,57.0,55.0,55.0,4.0,4.1,-191,-281,0,10,152,-269,133.9996361732483,133.99971723556519,134.0037441253662,134.01455354690552,134.1516411304474,134.1516411304474,134.1516411304474,134.1516411304474,134.1516411304474,134.1516411304474,134.1516411304474,137.39635467529297,1,3.3707616329193115,None,,,,,,,,,,,,,,,,,,2,1,2025-02-11_14h52.07.220,comp,2024.2.5,56.739820648064104,2025-02-11 14h52.15.414472 -0500,
34,34,0,critical,hwd,60.0,2.1,upper,200.0,125.0,125.0,200.0,100.0,100.0,2,3.6287055015563965,None,,,,,0,0,0,0,0,34,34,43,137.414785861969,,,,,,,,,,,,,,,,,,,,,,,,,,,,,,,,,,,,,,,,,,,,,,,,,,,,,,,,,,,,,,,,,,,,,,,,,,,,,,,,,200.0,125.0,125.0,200.0,100.0,100.0,2.1,2.11,-258,279,0,259,246,-286,137.398020029068,137.39812874794006,137.4014744758606,137.414785861969,137.56738686561584,137.56738686561584,137.56738686561584,137.56738686561584,137.56738686561584,137.56738686561584,137.56738686561584,141.04829120635986,2,3.6287055015563965,None,,,,,,,,,,,,,,,,,,2,1,2025-02-11_14h52.07.220,comp,2024.2.5,56.739820648064104,2025-02-11 14h52.15.414472 -0500,
35,35,0,critical,wdh,60.0,3.0,lower,57.0,133.0,55.0,55.0,133.0,57.0,1,2.0492806434631348,None,,,,,0,0,0,0,0,35,35,80,141.06473469734192,,,,,,,,,,,,,,,,,,,,,,,,,,,,,,,,,,,,,,,,,,,,,,,,,,,,,,,,,,,,,,,,,,,,,,,,,,,,,,,,,57.0,133.0,55.0,55.0,133.0,57.0,3.0,3.2,-190,-277,0,-4,152,270,141.0499086380005,141.04999566078186,141.05332779884338,141.06473469734192,141.2206621170044,141.2206621170044,141.2206621170044,141.2206621170044,141.2206621170044,141.2206621170044,141.2206621170044,143.1211748123169,1,2.0492806434631348,None,,,,,,,,,,,,,,,,,,2,1,2025-02-11_14h52.07.220,comp,2024.2.5,56.739820648064104,2025-02-11 14h52.15.414472 -0500,
36,36,0,critical,hwd,60.0,2.1,lower,133.0,57.0,57.0,133.0,55.0,55.0,2,1.1080996990203857,None,,,,,0,0,0,0,0,36,36,18,143.14179587364197,,,,,,,,,,,,,,,,,,,,,,,,,,,,,,,,,,,,,,,,,,,,,,,,,,,,,,,,,,,,,,,,,,,,,,,,,,,,,,,,,133.0,57.0,57.0,133.0,55.0,55.0,2.1,2.12,-191,-272,0,-283,190,250,143.1227343082428,143.12281584739685,143.12614369392395,143.14179587364197,143.28540873527527,143.28540873527527,143.28540873527527,143.28540873527527,143.28540873527527,143.28540873527527,143.28540873527527,144.25268602371216,2,1.1080996990203857,None,,,,,,,,,,,,,,,,,,2,1,2025-02-11_14h52.07.220,comp,2024.2.5,56.739820648064104,2025-02-11 14h52.15.414472 -0500,
37,37,0,filler_random,None,None,None,None,None,None,None,None,None,None,2,1.3324284553527832,None,,,,,0,0,0,0,0,37,37,169,144.26905703544617,,,,,,,,,,,,,,,,,,,,,,,,,,,,,,,,,,,,,,,,,,,,,,,,,,,,,,,,,,,,,,,,,,,,,,,,,,,,,,,,,93.52354621402004,84.54948484549033,164.99664722950507,138.9400387331189,127.32102728352746,93.18835685510402,4.0,4.1,-208,-268,0,-8,212,-257,144.25467467308044,144.25475549697876,144.25817561149597,144.26905703544617,144.41304230690002,144.41304230690002,144.41304230690002,144.41304230690002,144.41304230690002,144.41304230690002,144.41304230690002,145.61610627174377,2,1.3324284553527832,None,,,,,,,,,,,,,,,,,,2,1,2025-02-11_14h52.07.220,comp,2024.2.5,56.739820648064104,2025-02-11 14h52.15.414472 -0500,
38,38,0,critical,dwh,45.0,2.1,lower,65.0,65.0,57.0,133.0,133.0,57.0,2,3.0414083003997803,None,,,,,0,0,0,0,0,38,38,28,145.63363337516785,,,,,,,,,,,,,,,,,,,,,,,,,,,,,,,,,,,,,,,,,,,,,,,,,,,,,,,,,,,,,,,,,,,,,,,,,,,,,,,,,65.0,65.0,57.0,133.0,133.0,57.0,2.1,2.12,-195,-256,0,-282,191,285,145.61765789985657,145.61773681640625,145.620924949646,145.63363337516785,145.7725236415863,145.7725236415863,145.7725236415863,145.7725236415863,145.7725236415863,145.7725236415863,145.7725236415863,148.68556785583496,2,3.0414083003997803,None,,,,,,,,,,,,,,,,,,2,1,2025-02-11_14h52.07.220,comp,2024.2.5,56.739820648064104,2025-02-11 14h52.15.414472 -0500,
39,39,0,critical,dhw,45.0,2.1,upper,117.0,117.0,200.0,125.0,125.0,200.0,3,1.6840126514434814,None,,,,,0,0,0,0,0,39,39,1,148.7020936012268,,,,,,,,,,,,,,,,,,,,,,,,,,,,,,,,,,,,,,,,,,,,,,,,,,,,,,,,,,,,,,,,,,,,,,,,,,,,,,,,,117.0,117.0,200.0,125.0,125.0,200.0,2.1,2.11,-217,273,0,284,258,-289,148.68712735176086,148.68720817565918,148.69130039215088,148.7020936012268,148.85276746749878,148.85276746749878,148.85276746749878,148.85276746749878,148.85276746749878,148.85276746749878,148.85276746749878,150.3932728767395,3,1.6840126514434814,None,,,,,,,,,,,,,,,,,,2,1,2025-02-11_14h52.07.220,comp,2024.2.5,56.739820648064104,2025-02-11 14h52.15.414472 -0500,
40,40,0,filler_square,None,None,None,None,None,None,None,None,None,None,2,2.077481269836426,None,,,,,0,0,0,0,0,40,40,185,150.41220927238464,,,,,,,,,,,,,,,,,,,,,,,,,,,,,,,,,,,,,,,,,,,,,,,,,,,,,,,,,,,,,,,,,,,,,,,,,,,,,,,,,62.793248539773074,57.23334518853673,68.48106367159721,68.48106367159721,57.79649683179557,61.361789530996944,2.2,2.22,-159,269,0,-289,161,-270,150.3950276374817,150.39510989189148,150.39794659614563,150.41220927238464,150.557519197464,150.557519197464,150.557519197464,150.557519197464,150.557519197464,150.557519197464,150.557519197464,152.50495886802673,2,2.077481269836426,None,,,,,,,,,,,,,,,,,,2,1,2025-02-11_14h52.07.220,comp,2024.2.5,56.739820648064104,2025-02-11 14h52.15.414472 -0500,
41,41,0,critical,hwd,45.0,4.0,upper,200.0,125.0,125.0,200.0,117.0,117.0,2,4.042280197143555,None,,,,,0,0,0,0,0,41,41,101,152.5202295780182,,,,,,,,,,,,,,,,,,,,,,,,,,,,,,,,,,,,,,,,,,,,,,,,,,,,,,,,,,,,,,,,,,,,,,,,,,,,,,,,,200.0,125.0,125.0,200.0,117.0,117.0,4.0,4.1,-258,-287,0,8,254,-260,152.5065393447876,152.50661969184875,152.50970888137817,152.5202295780182,152.67025351524353,152.67025351524353,152.67025351524353,152.67025351524353,152.67025351524353,152.67025351524353,152.67025351524353,156.57115244865417,2,4.042280197143555,None,,,,,,,,,,,,,,,,,,2,1,2025-02-11_14h52.07.220,comp,2024.2.5,56.739820648064104,2025-02-11 14h52.15.414472 -0500,
42,42,0,critical,dwh,60.0,2.1,upper,100.0,100.0,125.0,200.0,200.0,125.0,2,1.0954813957214355,None,,,,,0,0,0,0,0,42,42,7,156.58688354492188,,,,,,,,,,,,,,,,,,,,,,,,,,,,,,,,,,,,,,,,,,,,,,,,,,,,,,,,,,,,,,,,,,,,,,,,,,,,,,,,,100.0,100.0,125.0,200.0,200.0,125.0,2.1,2.11,-246,254,0,277,258,-281,156.57267928123474,156.57275867462158,156.57615089416504,156.58688354492188,156.73964977264404,156.73964977264404,156.73964977264404,156.73964977264404,156.73964977264404,156.73964977264404,156.73964977264404,157.68647146224976,2,1.0954813957214355,None,,,,,,,,,,,,,,,,,,2,1,2025-02-11_14h52.07.220,comp,2024.2.5,56.739820648064104,2025-02-11 14h52.15.414472 -0500,
43,43,0,filler_random,None,None,None,None,None,None,None,None,None,None,1,1.9064390659332275,None,,,,,0,0,0,0,0,43,43,131,157.70304465293884,,,,,,,,,,,,,,,,,,,,,,,,,,,,,,,,,,,,,,,,,,,,,,,,,,,,,,,,,,,,,,,,,,,,,,,,,,,,,,,,,139.91187612866503,193.5268590475091,82.56168275884377,180.48625912731373,143.42441793132775,151.71766754778395,4.0,4.1,-283,-290,0,10,262,-264,157.68820023536682,157.68830633163452,157.69158935546875,157.70304465293884,157.85199785232544,157.85199785232544,157.85199785232544,157.85199785232544,157.85199785232544,157.85199785232544,157.85199785232544,159.62385177612305,1,1.9064390659332275,None,,,,,,,,,,,,,,,,,,2,1,2025-02-11_14h52.07.220,comp,2024.2.5,56.739820648064104,2025-02-11 14h52.15.414472 -0500,
44,44,0,critical,hdw,45.0,2.1,upper,200.0,125.0,117.0,117.0,125.0,200.0,3,2.393847703933716,None,,,,,0,0,0,0,0,44,44,21,159.64034247398376,,,,,,,,,,,,,,,,,,,,,,,,,,,,,,,,,,,,,,,,,,,,,,,,,,,,,,,,,,,,,,,,,,,,,,,,,,,,,,,,,200.0,125.0,117.0,117.0,125.0,200.0,2.1,2.11,-217,264,0,288,254,-270,159.62559342384338,159.62572526931763,159.62904739379883,159.64034247398376,159.78895378112793,159.78895378112793,159.78895378112793,159.78895378112793,159.78895378112793,159.78895378112793,159.78895378112793,162.04390382766724,3,2.393847703933716,None,,,,,,,,,,,,,,,,,,2,1,2025-02-11_14h52.07.220,comp,2024.2.5,56.739820648064104,2025-02-11 14h52.15.414472 -0500,
45,45,0,critical,dwh,60.0,2.1,lower,55.0,55.0,57.0,133.0,133.0,57.0,2,2.3776371479034424,None,,,,,0,0,0,0,0,45,45,30,162.0642285346985,,,,,,,,,,,,,,,,,,,,,,,,,,,,,,,,,,,,,,,,,,,,,,,,,,,,,,,,,,,,,,,,,,,,,,,,,,,,,,,,,55.0,55.0,57.0,133.0,133.0,57.0,2.1,2.12,-190,-251,0,-270,191,273,162.04546689987183,162.04554986953735,162.04852533340454,162.0642285346985,162.20844864845276,162.20844864845276,162.20844864845276,162.20844864845276,162.20844864845276,162.20844864845276,162.20844864845276,164.4461374282837,2,2.3776371479034424,None,,,,,,,,,,,,,,,,,,2,1,2025-02-11_14h52.07.220,comp,2024.2.5,56.739820648064104,2025-02-11 14h52.15.414472 -0500,
46,46,0,critical,wdh,60.0,2.1,upper,125.0,200.0,100.0,100.0,200.0,125.0,3,2.138183116912842,None,,,,,0,0,0,0,0,46,46,35,164.46399426460266,,,,,,,,,,,,,,,,,,,,,,,,,,,,,,,,,,,,,,,,,,,,,,,,,,,,,,,,,,,,,,,,,,,,,,,,,,,,,,,,,125.0,200.0,100.0,100.0,200.0,125.0,2.1,2.12,-246,-251,0,-259,208,264,164.44767570495605,164.44775485992432,164.45073819160461,164.46399426460266,164.60747933387756,164.60747933387756,164.60747933387756,164.60747933387756,164.60747933387756,164.60747933387756,164.60747933387756,166.6055657863617,3,2.138183116912842,None,,,,,,,,,,,,,,,,,,2,1,2025-02-11_14h52.07.220,comp,2024.2.5,56.739820648064104,2025-02-11 14h52.15.414472 -0500,
47,47,0,filler_square,None,None,None,None,None,None,None,None,None,None,1,1.5556485652923584,None,,,,,0,0,0,0,0,47,47,196,166.6221261024475,,,,,,,,,,,,,,,,,,,,,,,,,,,,,,,,,,,,,,,,,,,,,,,,,,,,,,,,,,,,,,,,,,,,,,,,,,,,,,,,,160.989034510328,160.989034510328,160.27231362100008,83.21053592474861,104.01925708206099,145.61027883179182,2.1,2.11,-218,262,0,279,210,-280,166.60762858390808,166.60771012306213,166.6109733581543,166.6221261024475,166.77496528625488,166.77496528625488,166.77496528625488,166.77496528625488,166.77496528625488,166.77496528625488,166.77496528625488,168.19087958335876,1,1.5556485652923584,None,,,,,,,,,,,,,,,,,,2,1,2025-02-11_14h52.07.220,comp,2024.2.5,56.739820648064104,2025-02-11 14h52.15.414472 -0500,
48,48,0,filler_random,None,None,None,None,None,None,None,None,None,None,2,1.7675330638885498,None,,,,,0,0,0,0,0,48,48,140,168.21012043952942,,,,,,,,,,,,,,,,,,,,,,,,,,,,,,,,,,,,,,,,,,,,,,,,,,,,,,,,,,,,,,,,,,,,,,,,,,,,,,,,,70.0959666525712,87.32710587706003,58.885660330121304,119.18224489548152,134.6065155775836,77.04657210602241,1.0,1.2,-199,8,0,-11,194,11,168.1925709247589,168.19265055656433,168.19594430923462,168.21012043952942,168.35779094696045,168.35779094696045,168.35779094696045,168.35779094696045,168.35779094696045,168.35779094696045,168.35779094696045,169.99452686309814,2,1.7675330638885498,None,,,,,,,,,,,,,,,,,,2,1,2025-02-11_14h52.07.220,comp,2024.2.5,56.739820648064104,2025-02-11 14h52.15.414472 -0500,
49,49,0,critical,hwd,60.0,3.0,upper,200.0,125.0,125.0,200.0,100.0,100.0,2,1.0548095703125,None,,,,,0,0,0,0,0,49,49,105,170.01089572906494,,,,,,,,,,,,,,,,,,,,,,,,,,,,,,,,,,,,,,,,,,,,,,,,,,,,,,,,,,,,,,,,,,,,,,,,,,,,,,,,,200.0,125.0,125.0,200.0,100.0,100.0,3.0,3.2,-258,-252,0,-6,246,275,169.99653005599976,169.99666810035706,169.99972128868103,170.01089572906494,170.15842080116272,170.15842080116272,170.15842080116272,170.15842080116272,170.15842080116272,170.15842080116272,170.15842080116272,171.08277773857117,2,1.0548095703125,None,,,,,,,,,,,,,,,,,,2,1,2025-02-11_14h52.07.220,comp,2024.2.5,56.739820648064104,2025-02-11 14h52.15.414472 -0500,
50,50,0,filler_random,None,None,None,None,None,None,None,None,None,None,1,2.1972246170043945,None,,,,,0,0,0,0,0,50,50,141,171.10192894935608,,,,,,,,,,,,,,,,,,,,,,,,,,,,,,,,,,,,,,,,,,,,,,,,,,,,,,,,,,,,,,,,,,,,,,,,,,,,,,,,,75.81158084116825,143.8823422756197,88.71544809214504,69.17920722241807,62.62805010974449,97.12674068236103,2.1,2.12,-203,-256,0,-284,179,275,171.08439755439758,171.0844759941101,171.0873565673828,171.10192894935608,171.24229454994202,171.24229454994202,171.24229454994202,171.24229454994202,171.24229454994202,171.24229454994202,171.24229454994202,173.3102753162384,1,2.1972246170043945,None,,,,,,,,,,,,,,,,,,2,1,2025-02-11_14h52.07.220,comp,2024.2.5,56.739820648064104,2025-02-11 14h52.15.414472 -0500,
51,51,0,filler_random,None,None,None,None,None,None,None,None,None,None,1,1.1712608337402344,None,,,,,0,0,0,0,0,51,51,138,173.32690238952637,,,,,,,,,,,,,,,,,,,,,,,,,,,,,,,,,,,,,,,,,,,,,,,,,,,,,,,,,,,,,,,,,,,,,,,,,,,,,,,,,196.72173323458287,189.81424995843912,74.70360371179179,188.4884931368034,140.62850818715626,168.17510070038168,3.0,3.2,-285,-261,0,0,274,283,173.31227278709412,173.31235074996948,173.3159897327423,173.32690238952637,173.47491669654846,173.47491669654846,173.47491669654846,173.47491669654846,173.47491669654846,173.47491669654846,173.47491669654846,174.51674962043762,1,1.1712608337402344,None,,,,,,,,,,,,,,,,,,2,1,2025-02-11_14h52.07.220,comp,2024.2.5,56.739820648064104,2025-02-11 14h52.15.414472 -0500,
52,52,0,catch,None,None,None,None,None,None,None,None,None,None,3,1.4259388446807861,None,,,,,0,0,0,0,0,52,52,123,174.53628849983215,,,,,,,,,,,,,,,,,,,,,,,,,,,,,,,,,,,,,,,,,,,,,,,,,,,,,,,,,,,,,,,,,,,,,,,,,,,,,,,,,114,76,119,71,151,174,4.0,4.1,-170,-265,0,17,218,-267,174.51868677139282,174.51876831054688,174.52168202400208,174.53628849983215,174.67928624153137,174.67928624153137,174.67928624153137,174.67928624153137,174.67928624153137,174.67928624153137,174.67928624153137,175.97226476669312,3,1.4259388446807861,None,,,,,,,,,,,,,,,,,,2,1,2025-02-11_14h52.07.220,comp,2024.2.5,56.739820648064104,2025-02-11 14h52.15.414472 -0500,
53,53,0,filler_square,None,None,None,None,None,None,None,None,None,None,1,1.4912681579589844,None,,,,,0,0,0,0,0,53,53,206,175.99060678482056,,,,,,,,,,,,,,,,,,,,,,,,,,,,,,,,,,,,,,,,,,,,,,,,,,,,,,,,,,,,,,,,,,,,,,,,,,,,,,,,,144.0751402674433,144.0751402674433,65.35179042393013,125.60319205710249,61.303177778225795,92.35063320792898,2.2,2.21,-231,-287,0,278,205,257,175.9742488861084,175.97433066368103,175.97750329971313,175.99060678482056,176.12694430351257,176.12694430351257,176.12694430351257,176.12694430351257,176.12694430351257,176.12694430351257,176.12694430351257,177.4963414669037,1,1.4912681579589844,None,,,,,,,,,,,,,,,,,,2,1,2025-02-11_14h52.07.220,comp,2024.2.5,56.739820648064104,2025-02-11 14h52.15.414472 -0500,
54,54,0,critical,dhw,45.0,4.0,lower,65.0,65.0,133.0,57.0,57.0,133.0,3,1.411531925201416,None,,,,,0,0,0,0,0,54,54,52,177.5114254951477,,,,,,,,,,,,,,,,,,,,,,,,,,,,,,,,,,,,,,,,,,,,,,,,,,,,,,,,,,,,,,,,,,,,,,,,,,,,,,,,,65.0,65.0,133.0,57.0,57.0,133.0,4.0,4.1,-157,-277,0,-2,191,-274,177.49795079231262,177.49803161621094,177.50111651420593,177.5114254951477,177.66048288345337,177.66048288345337,177.66048288345337,177.66048288345337,177.66048288345337,177.66048288345337,177.66048288345337,178.93765687942505,3,1.411531925201416,None,,,,,,,,,,,,,,,,,,2,1,2025-02-11_14h52.07.220,comp,2024.2.5,56.739820648064104,2025-02-11 14h52.15.414472 -0500,
55,55,0,critical,wdh,45.0,2.1,lower,57.0,133.0,65.0,65.0,133.0,57.0,1,1.8809664249420166,None,,,,,0,0,0,0,0,55,55,32,178.95270943641663,,,,,,,,,,,,,,,,,,,,,,,,,,,,,,,,,,,,,,,,,,,,,,,,,,,,,,,,,,,,,,,,,,,,,,,,,,,,,,,,,57.0,133.0,65.0,65.0,133.0,57.0,2.1,2.12,-195,-289,0,-283,157,278,178.939288854599,178.9393870830536,178.9423975944519,178.95270943641663,179.09322357177734,179.09322357177734,179.09322357177734,179.09322357177734,179.09322357177734,179.09322357177734,179.09322357177734,180.85297656059265,1,1.8809664249420166,None,,,,,,,,,,,,,,,,,,2,1,2025-02-11_14h52.07.220,comp,2024.2.5,56.739820648064104,2025-02-11 14h52.15.414472 -0500,
56,56,0,filler_square,None,None,None,None,None,None,None,None,None,None,3,1.0432884693145752,None,,,,,0,0,0,0,0,56,56,182,180.87049794197083,,,,,,,,,,,,,,,,,,,,,,,,,,,,,,,,,,,,,,,,,,,,,,,,,,,,,,,,,,,,,,,,,,,,,,,,,,,,,,,,,116.72256779638818,82.68703987134847,91.0038711522418,68.09804967035161,125.39111699897416,125.39111699897416,3.0,3.1,-171,265,0,-6,193,-271,180.8547739982605,180.85490822792053,180.85780429840088,180.87049794197083,181.01196551322937,181.01196551322937,181.01196551322937,181.01196551322937,181.01196551322937,181.01196551322937,181.01196551322937,181.9288947582245,3,1.0432884693145752,None,,,,,,,,,,,,,,,,,,2,1,2025-02-11_14h52.07.220,comp,2024.2.5,56.739820648064104,2025-02-11 14h52.15.414472 -0500,
57,57,0,critical,dhw,60.0,4.0,upper,100.0,100.0,200.0,125.0,125.0,200.0,3,1.1699163913726807,None,,,,,0,0,0,0,0,57,57,59,181.94446420669556,,,,,,,,,,,,,,,,,,,,,,,,,,,,,,,,,,,,,,,,,,,,,,,,,,,,,,,,,,,,,,,,,,,,,,,,,,,,,,,,,100.0,100.0,200.0,125.0,125.0,200.0,4.0,4.2,-208,-9,0,-265,258,-16,181.93041706085205,181.93049597740173,181.93400263786316,181.94446420669556,182.09502577781677,182.09502577781677,182.09502577781677,182.09502577781677,182.09502577781677,182.09502577781677,182.09502577781677,183.11728310585022,3,1.1699163913726807,None,,,,,,,,,,,,,,,,,,2,1,2025-02-11_14h52.07.220,comp,2024.2.5,56.739820648064104,2025-02-11 14h52.15.414472 -0500,
58,58,0,critical,wdh,60.0,4.0,lower,57.0,133.0,55.0,55.0,133.0,57.0,1,5.292238473892212,None,,,,,0,0,0,0,0,58,58,82,183.13406658172607,,,,,,,,,,,,,,,,,,,,,,,,,,,,,,,,,,,,,,,,,,,,,,,,,,,,,,,,,,,,,,,,,,,,,,,,,,,,,,,,,57.0,133.0,55.0,55.0,133.0,57.0,4.0,4.2,-190,17,0,-260,152,-19,183.118878364563,183.11898946762085,183.1222665309906,183.13406658172607,183.2795605659485,183.2795605659485,183.2795605659485,183.2795605659485,183.2795605659485,183.2795605659485,183.2795605659485,188.43111968040466,1,5.292238473892212,None,,,,,,,,,,,,,,,,,,2,1,2025-02-11_14h52.07.220,comp,2024.2.5,56.739820648064104,2025-02-11 14h52.15.414472 -0500,
59,59,0,critical,hwd,45.0,2.1,upper,200.0,125.0,125.0,200.0,117.0,117.0,2,2.683002233505249,None,,,,,0,0,0,0,0,59,59,17,188.4474754333496,,,,,,,,,,,,,,,,,,,,,,,,,,,,,,,,,,,,,,,,,,,,,,,,,,,,,,,,,,,,,,,,,,,,,,,,,,,,,,,,,200.0,125.0,125.0,200.0,117.0,117.0,2.1,2.12,-258,-254,0,-266,254,265,188.43289852142334,188.43303680419922,188.43653964996338,188.4474754333496,188.60329723358154,188.60329723358154,188.60329723358154,188.60329723358154,188.60329723358154,188.60329723358154,188.60329723358154,191.1358540058136,2,2.683002233505249,None,,,,,,,,,,,,,,,,,,2,1,2025-02-11_14h52.07.220,comp,2024.2.5,56.739820648064104,2025-02-11 14h52.15.414472 -0500,
60,60,0,catch,None,None,None,None,None,None,None,None,None,None,2,1.1364741325378418,None,,,,,0,0,0,0,0,60,60,121,191.15363216400146,,,,,,,,,,,,,,,,,,,,,,,,,,,,,,,,,,,,,,,,,,,,,,,,,,,,,,,,,,,,,,,,,,,,,,,,,,,,,,,,,84,106,148,177,116,74,2.2,2.22,-238,262,0,-273,222,-263,191.1377854347229,191.13789057731628,191.14083671569824,191.15363216400146,191.29711771011353,191.29711771011353,191.29711771011353,191.29711771011353,191.29711771011353,191.29711771011353,191.29711771011353,192.30157113075256,2,1.1364741325378418,None,,,,,,,,,,,,,,,,,,2,1,2025-02-11_14h52.07.220,comp,2024.2.5,56.739820648064104,2025-02-11 14h52.15.414472 -0500,
61,61,0,critical,dhw,60.0,3.0,lower,55.0,55.0,133.0,57.0,57.0,133.0,3,5.330363988876343,None,,,,,0,0,0,0,0,61,61,56,192.3201243877411,,,,,,,,,,,,,,,,,,,,,,,,,,,,,,,,,,,,,,,,,,,,,,,,,,,,,,,,,,,,,,,,,,,,,,,,,,,,,,,,,55.0,55.0,133.0,57.0,57.0,133.0,3.0,3.2,-152,-253,0,15,191,254,192.3033185005188,192.30343914031982,192.3067331314087,192.3201243877411,192.4656343460083,192.4656343460083,192.4656343460083,192.4656343460083,192.4656343460083,192.4656343460083,192.4656343460083,197.65376114845276,3,5.330363988876343,None,,,,,,,,,,,,,,,,,,2,1,2025-02-11_14h52.07.220,comp,2024.2.5,56.739820648064104,2025-02-11 14h52.15.414472 -0500,
62,62,0,critical,dhw,45.0,2.1,lower,65.0,65.0,133.0,57.0,57.0,133.0,2,2.223079204559326,None,,,,,0,0,0,0,0,62,62,24,197.6749107837677,,,,,,,,,,,,,,,,,,,,,,,,,,,,,,,,,,,,,,,,,,,,,,,,,,,,,,,,,,,,,,,,,,,,,,,,,,,,,,,,,65.0,65.0,133.0,57.0,57.0,133.0,2.1,2.12,-157,-276,0,-285,191,274,197.65565013885498,197.6557641029358,197.65910601615906,197.6749107837677,197.81729292869568,197.81729292869568,197.81729292869568,197.81729292869568,197.81729292869568,197.81729292869568,197.81729292869568,199.91214799880981,2,2.223079204559326,None,,,,,,,,,,,,,,,,,,2,1,2025-02-11_14h52.07.220,comp,2024.2.5,56.739820648064104,2025-02-11 14h52.15.414472 -0500,
63,63,0,catch,None,None,None,None,None,None,None,None,None,None,2,1.0461714267730713,None,,,,,0,0,0,0,0,63,63,127,199.9326686859131,,,,,,,,,,,,,,,,,,,,,,,,,,,,,,,,,,,,,,,,,,,,,,,,,,,,,,,,,,,,,,,,,,,,,,,,,,,,,,,,,74,116,167,158,132,58,3.0,3.1,-233,253,0,1,204,-284,199.91407585144043,199.9141571521759,199.91701078414917,199.9326686859131,200.06958937644958,200.06958937644958,200.06958937644958,200.06958937644958,200.06958937644958,200.06958937644958,200.06958937644958,200.98414850234985,2,1.0461714267730713,None,,,,,,,,,,,,,,,,,,2,1,2025-02-11_14h52.07.220,comp,2024.2.5,56.739820648064104,2025-02-11 14h52.15.414472 -0500,
64,64,0,critical,whd,60.0,2.1,lower,57.0,133.0,133.0,57.0,55.0,55.0,2,1.8717365264892578,None,,,,,0,0,0,0,0,64,64,14,201.00366139411926,,,,,,,,,,,,,,,,,,,,,,,,,,,,,,,,,,,,,,,,,,,,,,,,,,,,,,,,,,,,,,,,,,,,,,,,,,,,,,,,,57.0,133.0,133.0,57.0,55.0,55.0,2.1,2.11,-191,250,0,274,152,-255,200.98563933372498,200.98571825027466,200.98879837989807,201.00366139411926,201.1403694152832,201.1403694152832,201.1403694152832,201.1403694152832,201.1403694152832,201.1403694152832,201.1403694152832,202.88626790046692,2,1.8717365264892578,None,,,,,,,,,,,,,,,,,,2,1,2025-02-11_14h52.07.220,comp,2024.2.5,56.739820648064104,2025-02-11 14h52.15.414472 -0500,
65,65,0,critical,dwh,45.0,4.0,lower,65.0,65.0,57.0,133.0,133.0,57.0,2,1.2525675296783447,None,,,,,0,0,0,0,0,65,65,64,202.90205192565918,,,,,,,,,,,,,,,,,,,,,,,,,,,,,,,,,,,,,,,,,,,,,,,,,,,,,,,,,,,,,,,,,,,,,,,,,,,,,,,,,65.0,65.0,57.0,133.0,133.0,57.0,4.0,4.1,-195,-273,0,-1,191,-262,202.88773846626282,202.88783740997314,202.89131045341492,202.90205192565918,203.04915714263916,203.04915714263916,203.04915714263916,203.04915714263916,203.04915714263916,203.04915714263916,203.04915714263916,204.16032695770264,2,1.2525675296783447,None,,,,,,,,,,,,,,,,,,2,1,2025-02-11_14h52.07.220,comp,2024.2.5,56.739820648064104,2025-02-11 14h52.15.414472 -0500,
66,66,0,filler_random,None,None,None,None,None,None,None,None,None,None,2,1.2259368896484375,None,,,,,0,0,0,0,0,66,66,143,204.17620491981506,,,,,,,,,,,,,,,,,,,,,,,,,,,,,,,,,,,,,,,,,,,,,,,,,,,,,,,,,,,,,,,,,,,,,,,,,,,,,,,,,95.3950363385618,65.72326799278575,195.97048960909459,99.20306339654044,131.73584298674916,88.89559962091128,2.1,2.12,-178,-277,0,-287,190,289,204.1620261669159,204.1621069908142,204.16497778892517,204.17620491981506,204.320405960083,204.320405960083,204.320405960083,204.320405960083,204.320405960083,204.320405960083,204.320405960083,205.42011308670044,2,1.2259368896484375,None,,,,,,,,,,,,,,,,,,2,1,2025-02-11_14h52.07.220,comp,2024.2.5,56.739820648064104,2025-02-11 14h52.15.414472 -0500,
67,67,0,critical,dhw,60.0,4.0,lower,55.0,55.0,133.0,57.0,57.0,133.0,3,1.1500425338745117,None,,,,,0,0,0,0,0,67,67,58,205.43607378005981,,,,,,,,,,,,,,,,,,,,,,,,,,,,,,,,,,,,,,,,,,,,,,,,,,,,,,,,,,,,,,,,,,,,,,,,,,,,,,,,,55.0,55.0,133.0,57.0,57.0,133.0,4.0,4.1,-152,-269,0,-18,191,-280,205.4216504096985,205.42173075675964,205.4257833957672,205.43607378005981,205.58637762069702,205.58637762069702,205.58637762069702,205.58637762069702,205.58637762069702,205.58637762069702,205.58637762069702,206.60300636291504,3,1.1500425338745117,None,,,,,,,,,,,,,,,,,,2,1,2025-02-11_14h52.07.220,comp,2024.2.5,56.739820648064104,2025-02-11 14h52.15.414472 -0500,
68,68,0,filler_random,None,None,None,None,None,None,None,None,None,None,2,0.9511740207672119,None,,,,,0,0,0,0,0,68,68,137,206.61890316009521,,,,,,,,,,,,,,,,,,,,,,,,,,,,,,,,,,,,,,,,,,,,,,,,,,,,,,,,,,,,,,,,,,,,,,,,,,,,,,,,,71.43219182667613,113.65511326565073,156.03772855863832,180.33853706184794,100.51955507648393,163.92273637062826,1.0,1.1,-723,268,-480,288,-212,285,206.60467147827148,206.6047487258911,206.60788083076477,206.61890316009521,206.7758867740631,206.7758867740631,206.7758867740631,206.7758867740631,206.7758867740631,206.7758867740631,206.7758867740631,207.5900423526764,2,0.9511740207672119,None,,,,,,,,,,,,,,,,,,2,1,2025-02-11_14h52.07.220,comp,2024.2.5,56.739820648064104,2025-02-11 14h52.15.414472 -0500,
69,69,0,filler_random,None,None,None,None,None,None,None,None,None,None,3,2.4999783039093018,None,,,,,0,0,0,0,0,69,69,147,207.60620999336243,,,,,,,,,,,,,,,,,,,,,,,,,,,,,,,,,,,,,,,,,,,,,,,,,,,,,,,,,,,,,,,,,,,,,,,,,,,,,,,,,102.22584630320857,66.11371343836258,118.20523213873864,101.79033570132574,188.480409069067,77.88617672932156,2.2,2.22,-180,271,0,-267,186,-272,207.59198760986328,207.5920693874359,207.59576892852783,207.60620999336243,207.75722289085388,207.75722289085388,207.75722289085388,207.75722289085388,207.75722289085388,207.75722289085388,207.75722289085388,210.12039470672607,3,2.4999783039093018,None,,,,,,,,,,,,,,,,,,2,1,2025-02-11_14h52.07.220,comp,2024.2.5,56.739820648064104,2025-02-11 14h52.15.414472 -0500,
70,70,0,filler_random,None,None,None,None,None,None,None,None,None,None,3,5.794114351272583,None,,,,,0,0,0,0,0,70,70,158,210.1371204853058,,,,,,,,,,,,,,,,,,,,,,,,,,,,,,,,,,,,,,,,,,,,,,,,,,,,,,,,,,,,,,,,,,,,,,,,,,,,,,,,,94.03496166783674,157.28869294498676,114.64417474921673,57.982219234109515,109.06971496930917,185.51768753351655,2.1,2.12,-204,-273,0,-275,218,265,210.12227320671082,210.1223657131195,210.12558031082153,210.1371204853058,210.29152369499207,210.29152369499207,210.29152369499207,210.29152369499207,210.29152369499207,210.29152369499207,210.29152369499207,215.94021677970886,3,5.794114351272583,None,,,,,,,,,,,,,,,,,,2,1,2025-02-11_14h52.07.220,comp,2024.2.5,56.739820648064104,2025-02-11 14h52.15.414472 -0500,
71,71,0,filler_random,None,None,None,None,None,None,None,None,None,None,2,1.1342871189117432,None,,,,,0,0,0,0,0,71,71,150,215.95674228668213,,,,,,,,,,,,,,,,,,,,,,,,,,,,,,,,,,,,,,,,,,,,,,,,,,,,,,,,,,,,,,,,,,,,,,,,,,,,,,,,,173.16729978031867,135.2944384893063,195.75729109314398,136.86074897230182,89.8577688411829,130.15640192608458,4.0,4.1,-232,-256,0,-6,230,-276,215.94226574897766,215.9423508644104,215.9457664489746,215.95674228668213,216.1073877811432,216.1073877811432,216.1073877811432,216.1073877811432,216.1073877811432,216.1073877811432,216.1073877811432,217.09599947929382,2,1.1342871189117432,None,,,,,,,,,,,,,,,,,,2,1,2025-02-11_14h52.07.220,comp,2024.2.5,56.739820648064104,2025-02-11 14h52.15.414472 -0500,
72,72,0,critical,dhw,45.0,2.1,upper,117.0,117.0,200.0,125.0,125.0,200.0,3,2.586780309677124,None,,,,,0,0,0,0,0,72,72,25,217.11131811141968,,,,,,,,,,,,,,,,,,,,,,,,,,,,,,,,,,,,,,,,,,,,,,,,,,,,,,,,,,,,,,,,,,,,,,,,,,,,,,,,,117.0,117.0,200.0,125.0,125.0,200.0,2.1,2.12,-217,-256,0,-287,258,284,217.09755873680115,217.09763836860657,217.10053062438965,217.11131811141968,217.2573549747467,217.2573549747467,217.2573549747467,217.2573549747467,217.2573549747467,217.2573549747467,217.2573549747467,219.70891976356506,3,2.586780309677124,None,,,,,,,,,,,,,,,,,,2,1,2025-02-11_14h52.07.220,comp,2024.2.5,56.739820648064104,2025-02-11 14h52.15.414472 -0500,
73,73,0,critical,whd,45.0,2.1,lower,57.0,133.0,133.0,57.0,65.0,65.0,1,1.312389850616455,None,,,,,0,0,0,0,0,73,73,36,219.7299575805664,,,,,,,,,,,,,,,,,,,,,,,,,,,,,,,,,,,,,,,,,,,,,,,,,,,,,,,,,,,,,,,,,,,,,,,,,,,,,,,,,57.0,133.0,133.0,57.0,65.0,65.0,2.1,2.11,-191,265,0,271,157,-277,219.71048521995544,219.7105634212494,219.71408796310425,219.7299575805664,219.87450861930847,219.87450861930847,219.87450861930847,219.87450861930847,219.87450861930847,219.87450861930847,219.87450861930847,221.05765104293823,1,1.312389850616455,None,,,,,,,,,,,,,,,,,,2,1,2025-02-11_14h52.07.220,comp,2024.2.5,56.739820648064104,2025-02-11 14h52.15.414472 -0500,
74,74,0,critical,hdw,45.0,1.0,upper,200.0,125.0,117.0,117.0,125.0,200.0,1,1.5331876277923584,None,,,,,0,0,0,0,0,74,74,109,221.07708597183228,,,,,,,,,,,,,,,,,,,,,,,,,,,,,,,,,,,,,,,,,,,,,,,,,,,,,,,,,,,,,,,,,,,,,,,,,,,,,,,,,200.0,125.0,117.0,117.0,125.0,200.0,1.0,1.1,-697,262,-480,261,-226,255,221.05918884277344,221.05926847457886,221.0624361038208,221.07708597183228,221.23056507110596,221.23056507110596,221.23056507110596,221.23056507110596,221.23056507110596,221.23056507110596,221.23056507110596,222.62665247917175,1,1.5331876277923584,None,,,,,,,,,,,,,,,,,,2,1,2025-02-11_14h52.07.220,comp,2024.2.5,56.739820648064104,2025-02-11 14h52.15.414472 -0500,
75,75,0,critical,dhw,45.0,3.0,lower,65.0,65.0,133.0,57.0,57.0,133.0,3,1.3355541229248047,None,,,,,0,0,0,0,0,75,75,50,222.6428782939911,,,,,,,,,,,,,,,,,,,,,,,,,,,,,,,,,,,,,,,,,,,,,,,,,,,,,,,,,,,,,,,,,,,,,,,,,,,,,,,,,65.0,65.0,133.0,57.0,57.0,133.0,3.0,3.2,-157,-272,0,18,191,265,222.62822437286377,222.62833189964294,222.63229823112488,222.6428782939911,222.7989583015442,222.7989583015442,222.7989583015442,222.7989583015442,222.7989583015442,222.7989583015442,222.7989583015442,223.98189783096313,3,1.3355541229248047,None,,,,,,,,,,,,,,,,,,2,1,2025-02-11_14h52.07.220,comp,2024.2.5,56.739820648064104,2025-02-11 14h52.15.414472 -0500,
76,76,0,filler_square,None,None,None,None,None,None,None,None,None,None,2,0.903825044631958,None,,,,,0,0,0,0,0,76,76,179,224.0023112297058,,,,,,,,,,,,,,,,,,,,,,,,,,,,,,,,,,,,,,,,,,,,,,,,,,,,,,,,,,,,,,,,,,,,,,,,,,,,,,,,,74.70910954749579,102.84356752543815,106.12012390052311,106.12012390052311,73.69778113672166,64.49492525925072,1.0,1.2,-200,19,0,10,181,-19,223.98370790481567,223.98378944396973,223.986652135849,224.0023112297058,224.14280152320862,224.14280152320862,224.14280152320862,224.14280152320862,224.14280152320862,224.14280152320862,224.14280152320862,224.9096462726593,2,0.903825044631958,None,,,,,,,,,,,,,,,,,,2,1,2025-02-11_14h52.07.220,comp,2024.2.5,56.739820648064104,2025-02-11 14h52.15.414472 -0500,
77,77,0,critical,wdh,45.0,3.0,upper,125.0,200.0,117.0,117.0,200.0,125.0,1,1.6047594547271729,None,,,,,0,0,0,0,0,77,77,75,224.92629981040955,,,,,,,,,,,,,,,,,,,,,,,,,,,,,,,,,,,,,,,,,,,,,,,,,,,,,,,,,,,,,,,,,,,,,,,,,,,,,,,,,125.0,200.0,117.0,117.0,200.0,125.0,3.0,3.2,-254,-277,0,-4,217,260,224.91116523742676,224.91124439239502,224.91467761993408,224.92629981040955,225.07757306098938,225.07757306098938,225.07757306098938,225.07757306098938,225.07757306098938,225.07757306098938,225.07757306098938,226.53854250907898,1,1.6047594547271729,None,,,,,,,,,,,,,,,,,,2,1,2025-02-11_14h52.07.220,comp,2024.2.5,56.739820648064104,2025-02-11 14h52.15.414472 -0500,
78,78,0,critical,wdh,60.0,3.0,upper,125.0,200.0,100.0,100.0,200.0,125.0,1,1.3845829963684082,None,,,,,0,0,0,0,0,78,78,81,226.55402135849,,,,,,,,,,,,,,,,,,,,,,,,,,,,,,,,,,,,,,,,,,,,,,,,,,,,,,,,,,,,,,,,,,,,,,,,,,,,,,,,,125.0,200.0,100.0,100.0,200.0,125.0,3.0,3.1,-246,269,0,7,208,-285,226.54010272026062,226.54018259048462,226.54313206672668,226.55402135849,226.69118213653564,226.69118213653564,226.69118213653564,226.69118213653564,226.69118213653564,226.69118213653564,226.69118213653564,227.95022177696228,1,1.3845829963684082,None,,,,,,,,,,,,,,,,,,2,1,2025-02-11_14h52.07.220,comp,2024.2.5,56.739820648064104,2025-02-11 14h52.15.414472 -0500,
79,79,0,catch,None,None,None,None,None,None,None,None,None,None,1,1.314422845840454,None,,,,,0,0,0,0,0,79,79,122,227.96819305419922,,,,,,,,,,,,,,,,,,,,,,,,,,,,,,,,,,,,,,,,,,,,,,,,,,,,,,,,,,,,,,,,,,,,,,,,,,,,,,,,,135,190,92,98,133,57,3.0,3.2,-240,-254,0,2,174,257,227.95211124420166,227.95219469070435,227.95508575439453,227.96819305419922,228.11099076271057,228.11099076271057,228.11099076271057,228.11099076271057,228.11099076271057,228.11099076271057,228.11099076271057,229.28508734703064,1,1.314422845840454,None,,,,,,,,,,,,,,,,,,2,1,2025-02-11_14h52.07.220,comp,2024.2.5,56.739820648064104,2025-02-11 14h52.15.414472 -0500,
80,80,0,filler_random,None,None,None,None,None,None,None,None,None,None,1,1.443188190460205,None,,,,,0,0,0,0,0,80,80,151,229.30349969863892,,,,,,,,,,,,,,,,,,,,,,,,,,,,,,,,,,,,,,,,,,,,,,,,,,,,,,,,,,,,,,,,,,,,,,,,,,,,,,,,,127.52730398401349,189.6482080139425,199.04931451097553,112.50773250604819,123.02385835140892,93.04409237431467,2.2,2.22,-247,273,0,-280,199,-255,229.2868411540985,229.28698015213013,229.2902352809906,229.30349969863892,229.44604659080505,229.44604659080505,229.44604659080505,229.44604659080505,229.44604659080505,229.44604659080505,229.44604659080505,230.7649884223938,1,1.443188190460205,None,,,,,,,,,,,,,,,,,,2,1,2025-02-11_14h52.07.220,comp,2024.2.5,56.739820648064104,2025-02-11 14h52.15.414472 -0500,
81,81,0,critical,wdh,45.0,1.0,upper,125.0,200.0,117.0,117.0,200.0,125.0,1,1.6147980690002441,None,,,,,0,0,0,0,0,81,81,73,230.78017258644104,,,,,,,,,,,,,,,,,,,,,,,,,,,,,,,,,,,,,,,,,,,,,,,,,,,,,,,,,,,,,,,,,,,,,,,,,,,,,,,,,125.0,200.0,117.0,117.0,200.0,125.0,1.0,1.2,-254,4,0,-16,217,-10,230.76649284362793,230.76657390594482,230.769850730896,230.78017258644104,230.92913269996643,230.92913269996643,230.92913269996643,230.92913269996643,230.92913269996643,230.92913269996643,230.92913269996643,232.39817094802856,1,1.6147980690002441,None,,,,,,,,,,,,,,,,,,2,1,2025-02-11_14h52.07.220,comp,2024.2.5,56.739820648064104,2025-02-11 14h52.15.414472 -0500,
82,82,0,critical,whd,60.0,2.1,upper,125.0,200.0,200.0,125.0,100.0,100.0,1,1.5014007091522217,None,,,,,0,0,0,0,0,82,82,15,232.4131269454956,,,,,,,,,,,,,,,,,,,,,,,,,,,,,,,,,,,,,,,,,,,,,,,,,,,,,,,,,,,,,,,,,,,,,,,,,,,,,,,,,125.0,200.0,200.0,125.0,100.0,100.0,2.1,2.11,-258,280,0,269,208,-288,232.39983940124512,232.39993834495544,232.40336799621582,232.4131269454956,232.5593295097351,232.5593295097351,232.5593295097351,232.5593295097351,232.5593295097351,232.5593295097351,232.5593295097351,233.92922258377075,1,1.5014007091522217,None,,,,,,,,,,,,,,,,,,2,1,2025-02-11_14h52.07.220,comp,2024.2.5,56.739820648064104,2025-02-11 14h52.15.414472 -0500,
83,83,0,filler_square,None,None,None,None,None,None,None,None,None,None,1,2.3454971313476562,None,,,,,0,0,0,0,0,83,83,203,233.94523739814758,,,,,,,,,,,,,,,,,,,,,,,,,,,,,,,,,,,,,,,,,,,,,,,,,,,,,,,,,,,,,,,,,,,,,,,,,,,,,,,,,166.5373205657395,166.5373205657395,124.54607937052408,162.06049216639076,113.13679228123709,153.0001652697037,2.2,2.22,-260,278,0,-281,254,-258,233.93128156661987,233.93136405944824,233.93477535247803,233.94523739814758,234.09852123260498,234.09852123260498,234.09852123260498,234.09852123260498,234.09852123260498,234.09852123260498,234.09852123260498,236.29738974571228,1,2.3454971313476562,None,,,,,,,,,,,,,,,,,,2,1,2025-02-11_14h52.07.220,comp,2024.2.5,56.739820648064104,2025-02-11 14h52.15.414472 -0500,
84,84,0,critical,hdw,45.0,4.0,upper,200.0,125.0,117.0,117.0,125.0,200.0,1,1.7467641830444336,None,,,,,0,0,0,0,0,84,84,113,236.3117949962616,,,,,,,,,,,,,,,,,,,,,,,,,,,,,,,,,,,,,,,,,,,,,,,,,,,,,,,,,,,,,,,,,,,,,,,,,,,,,,,,,200.0,125.0,117.0,117.0,125.0,200.0,4.0,4.1,-217,-276,0,-11,254,-288,236.2988986968994,236.29899954795837,236.30217051506042,236.3117949962616,236.45965433120728,236.45965433120728,236.45965433120728,236.45965433120728,236.45965433120728,236.45965433120728,236.45965433120728,238.06350326538086,1,1.7467641830444336,None,,,,,,,,,,,,,,,,,,2,1,2025-02-11_14h52.07.220,comp,2024.2.5,56.739820648064104,2025-02-11 14h52.15.414472 -0500,
85,85,0,filler_square,None,None,None,None,None,None,None,None,None,None,2,3.145472288131714,None,,,,,0,0,0,0,0,85,85,204,238.081378698349,,,,,,,,,,,,,,,,,,,,,,,,,,,,,,,,,,,,,,,,,,,,,,,,,,,,,,,,,,,,,,,,,,,,,,,,,,,,,,,,,62.8838359193408,66.62119230606673,68.87189124229232,68.87189124229232,67.82641757468775,61.34862478612047,1.0,1.2,-164,-5,0,14,161,-14,238.06526231765747,238.0653440952301,238.06842374801636,238.081378698349,238.23017525672913,238.23017525672913,238.23017525672913,238.23017525672913,238.23017525672913,238.23017525672913,238.23017525672913,241.2314875125885,2,3.145472288131714,None,,,,,,,,,,,,,,,,,,2,1,2025-02-11_14h52.07.220,comp,2024.2.5,56.739820648064104,2025-02-11 14h52.15.414472 -0500,
86,86,0,filler_square,None,None,None,None,None,None,None,None,None,None,3,6.298644304275513,None,,,,,0,0,0,0,0,86,86,202,241.24848008155823,,,,,,,,,,,,,,,,,,,,,,,,,,,,,,,,,,,,,,,,,,,,,,,,,,,,,,,,,,,,,,,,,,,,,,,,,,,,,,,,,62.15639506676854,88.33773637288537,95.0884886744627,100.39227689631377,103.03769324495352,103.03769324495352,1.0,1.1,-670,290,-480,289,-282,277,241.23352527618408,241.23360586166382,241.23771357536316,241.24848008155823,241.3986177444458,241.3986177444458,241.3986177444458,241.3986177444458,241.3986177444458,241.3986177444458,241.3986177444458,247.55505776405334,3,6.298644304275513,None,,,,,,,,,,,,,,,,,,2,1,2025-02-11_14h52.07.220,comp,2024.2.5,56.739820648064104,2025-02-11 14h52.15.414472 -0500,
87,87,0,critical,whd,45.0,2.1,lower,57.0,133.0,133.0,57.0,65.0,65.0,2,3.666633367538452,None,,,,,0,0,0,0,0,87,87,12,247.57570576667786,,,,,,,,,,,,,,,,,,,,,,,,,,,,,,,,,,,,,,,,,,,,,,,,,,,,,,,,,,,,,,,,,,,,,,,,,,,,,,,,,57.0,133.0,133.0,57.0,65.0,65.0,2.1,2.11,-191,269,0,267,157,-263,247.5566921234131,247.55677247047424,247.56009697914124,247.57570576667786,247.7174732685089,247.7174732685089,247.7174732685089,247.7174732685089,247.7174732685089,247.7174732685089,247.7174732685089,251.2559745311737,2,3.666633367538452,None,,,,,,,,,,,,,,,,,,2,1,2025-02-11_14h52.07.220,comp,2024.2.5,56.739820648064104,2025-02-11 14h52.15.414472 -0500,
88,88,0,filler_random,None,None,None,None,None,None,None,None,None,None,2,2.733311891555786,None,,,,,0,0,0,0,0,88,88,149,251.27709221839905,,,,,,,,,,,,,,,,,,,,,,,,,,,,,,,,,,,,,,,,,,,,,,,,,,,,,,,,,,,,,,,,,,,,,,,,,,,,,,,,,120.16720447464749,182.73983092220794,145.3004180987868,153.52619687156425,152.58480106819826,145.5420608386675,4.0,4.1,-264,-253,0,11,246,-289,251.25789618492126,251.25801992416382,251.2612509727478,251.27709221839905,251.42113065719604,251.42113065719604,251.42113065719604,251.42113065719604,251.42113065719604,251.42113065719604,251.42113065719604,254.0238060951233,2,2.733311891555786,None,,,,,,,,,,,,,,,,,,2,1,2025-02-11_14h52.07.220,comp,2024.2.5,56.739820648064104,2025-02-11 14h52.15.414472 -0500,
89,89,0,critical,whd,60.0,2.1,upper,125.0,200.0,200.0,125.0,100.0,100.0,1,2.4024219512939453,None,,,,,0,0,0,0,0,89,89,39,254.0400891304016,,,,,,,,,,,,,,,,,,,,,,,,,,,,,,,,,,,,,,,,,,,,,,,,,,,,,,,,,,,,,,,,,,,,,,,,,,,,,,,,,125.0,200.0,200.0,125.0,100.0,100.0,2.1,2.11,-258,262,0,276,208,-284,254.0254671573639,254.02554726600647,254.02878069877625,254.0400891304016,254.18598771095276,254.18598771095276,254.18598771095276,254.18598771095276,254.18598771095276,254.18598771095276,254.18598771095276,256.45216727256775,1,2.4024219512939453,None,,,,,,,,,,,,,,,,,,2,1,2025-02-11_14h52.07.220,comp,2024.2.5,56.739820648064104,2025-02-11 14h52.15.414472 -0500,
90,90,0,critical,hdw,45.0,1.0,lower,133.0,57.0,65.0,65.0,57.0,133.0,3,6.202480792999268,None,,,,,0,0,0,0,0,90,90,108,256.47200560569763,,,,,,,,,,,,,,,,,,,,,,,,,,,,,,,,,,,,,,,,,,,,,,,,,,,,,,,,,,,,,,,,,,,,,,,,,,,,,,,,,133.0,57.0,65.0,65.0,57.0,133.0,1.0,1.3,323,-289,480,-259,675,-263,256.45371651649475,256.4537971019745,256.45728850364685,256.47200560569763,256.619521856308,256.619521856308,256.619521856308,256.619521856308,256.619521856308,256.619521856308,256.619521856308,262.687730550766,3,6.202480792999268,None,,,,,,,,,,,,,,,,,,2,1,2025-02-11_14h52.07.220,comp,2024.2.5,56.739820648064104,2025-02-11 14h52.15.414472 -0500,
91,91,0,critical,hwd,45.0,2.1,upper,200.0,125.0,125.0,200.0,117.0,117.0,2,2.3429794311523438,None,,,,,0,0,0,0,0,91,91,41,262.7080955505371,,,,,,,,,,,,,,,,,,,,,,,,,,,,,,,,,,,,,,,,,,,,,,,,,,,,,,,,,,,,,,,,,,,,,,,,,,,,,,,,,200.0,125.0,125.0,200.0,117.0,117.0,2.1,2.12,-258,-283,0,-267,254,287,262.68933725357056,262.6894471645355,262.69270944595337,262.7080955505371,262.8551411628723,262.8551411628723,262.8551411628723,262.8551411628723,262.8551411628723,262.8551411628723,262.8551411628723,265.0548117160797,2,2.3429794311523438,None,,,,,,,,,,,,,,,,,,2,1,2025-02-11_14h52.07.220,comp,2024.2.5,56.739820648064104,2025-02-11 14h52.15.414472 -0500,
92,92,0,filler_random,None,None,None,None,None,None,None,None,None,None,2,2.650587320327759,None,,,,,0,0,0,0,0,92,92,166,265.0723912715912,,,,,,,,,,,,,,,,,,,,,,,,,,,,,,,,,,,,,,,,,,,,,,,,,,,,,,,,,,,,,,,,,,,,,,,,,,,,,,,,,123.78407432491058,175.33424715367835,134.2228394093307,169.82500179866844,105.28184412324977,113.6950486400032,4.0,4.2,-269,3,0,-260,238,-17,265.05650568008423,265.05659008026123,265.05963230133057,265.0723912715912,265.2291474342346,265.2291474342346,265.2291474342346,265.2291474342346,265.2291474342346,265.2291474342346,265.2291474342346,267.740163564682,2,2.650587320327759,None,,,,,,,,,,,,,,,,,,2,1,2025-02-11_14h52.07.220,comp,2024.2.5,56.739820648064104,2025-02-11 14h52.15.414472 -0500,
93,93,0,filler_random,None,None,None,None,None,None,None,None,None,None,3,1.350635051727295,None,,,,,0,0,0,0,0,93,93,161,267.75602173805237,,,,,,,,,,,,,,,,,,,,,,,,,,,,,,,,,,,,,,,,,,,,,,,,,,,,,,,,,,,,,,,,,,,,,,,,,,,,,,,,,83.65667356399501,98.87245794252186,67.36976026286679,135.03143962114655,185.9285674921974,102.08171646390147,3.0,3.2,-213,-289,0,-7,215,263,267.74209785461426,267.74217772483826,267.74566531181335,267.75602173805237,267.9090266227722,267.9090266227722,267.9090266227722,267.9090266227722,267.9090266227722,267.9090266227722,267.9090266227722,269.1121768951416,3,1.350635051727295,None,,,,,,,,,,,,,,,,,,2,1,2025-02-11_14h52.07.220,comp,2024.2.5,56.739820648064104,2025-02-11 14h52.15.414472 -0500,
94,94,0,critical,hwd,45.0,1.0,lower,133.0,57.0,57.0,133.0,65.0,65.0,2,1.968585729598999,None,,,,,0,0,0,0,0,94,94,96,269.1299948692322,,,,,,,,,,,,,,,,,,,,,,,,,,,,,,,,,,,,,,,,,,,,,,,,,,,,,,,,,,,,,,,,,,,,,,,,,,,,,,,,,133.0,57.0,57.0,133.0,65.0,65.0,1.0,1.3,289,-276,480,-257,675,-273,269.1138496398926,269.1139349937439,269.1168758869171,269.1299948692322,269.2737898826599,269.2737898826599,269.2737898826599,269.2737898826599,269.2737898826599,269.2737898826599,269.2737898826599,271.11172556877136,2,1.968585729598999,None,,,,,,,,,,,,,,,,,,2,1,2025-02-11_14h52.07.220,comp,2024.2.5,56.739820648064104,2025-02-11 14h52.15.414472 -0500,
95,95,0,critical,wdh,60.0,2.1,lower,57.0,133.0,55.0,55.0,133.0,57.0,1,1.7032599449157715,None,,,,,0,0,0,0,0,95,95,10,271.13205647468567,,,,,,,,,,,,,,,,,,,,,,,,,,,,,,,,,,,,,,,,,,,,,,,,,,,,,,,,,,,,,,,,,,,,,,,,,,,,,,,,,57.0,133.0,55.0,55.0,133.0,57.0,2.1,2.11,-190,258,0,269,152,-285,271.11339712142944,271.11347794532776,271.1163830757141,271.13205647468567,271.27428221702576,271.27428221702576,271.27428221702576,271.27428221702576,271.27428221702576,271.27428221702576,271.27428221702576,272.840868473053,1,1.7032599449157715,None,,,,,,,,,,,,,,,,,,2,1,2025-02-11_14h52.07.220,comp,2024.2.5,56.739820648064104,2025-02-11 14h52.15.414472 -0500,
96,96,0,critical,hdw,45.0,2.1,upper,200.0,125.0,117.0,117.0,125.0,200.0,1,1.7998971939086914,None,,,,,0,0,0,0,0,96,96,45,272.858713388443,,,,,,,,,,,,,,,,,,,,,,,,,,,,,,,,,,,,,,,,,,,,,,,,,,,,,,,,,,,,,,,,,,,,,,,,,,,,,,,,,200.0,125.0,117.0,117.0,125.0,200.0,2.1,2.12,-217,-282,0,-275,254,251,272.8423902988434,272.842472076416,272.8455345630646,272.858713388443,273.00508403778076,273.00508403778076,273.00508403778076,273.00508403778076,273.00508403778076,273.00508403778076,273.00508403778076,274.67550897598267,1,1.7998971939086914,None,,,,,,,,,,,,,,,,,,2,1,2025-02-11_14h52.07.220,comp,2024.2.5,56.739820648064104,2025-02-11 14h52.15.414472 -0500,
97,97,0,critical,dwh,60.0,4.0,upper,100.0,100.0,125.0,200.0,200.0,125.0,2,1.0964720249176025,None,,,,,0,0,0,0,0,97,97,71,274.6909067630768,,,,,,,,,,,,,,,,,,,,,,,,,,,,,,,,,,,,,,,,,,,,,,,,,,,,,,,,,,,,,,,,,,,,,,,,,,,,,,,,,100.0,100.0,125.0,200.0,200.0,125.0,4.0,4.1,-246,-273,0,11,258,-262,274.67709279060364,274.6771717071533,274.68059635162354,274.6909067630768,274.843222618103,274.843222618103,274.843222618103,274.843222618103,274.843222618103,274.843222618103,274.843222618103,275.7937259674072,2,1.0964720249176025,None,,,,,,,,,,,,,,,,,,2,1,2025-02-11_14h52.07.220,comp,2024.2.5,56.739820648064104,2025-02-11 14h52.15.414472 -0500,
98,98,0,filler_square,None,None,None,None,None,None,None,None,None,None,3,3.3364455699920654,None,,,,,0,0,0,0,0,98,98,198,275.81060910224915,,,,,,,,,,,,,,,,,,,,,,,,,,,,,,,,,,,,,,,,,,,,,,,,,,,,,,,,,,,,,,,,,,,,,,,,,,,,,,,,,75.65836905654946,75.65836905654946,57.609128943132134,57.9412163518601,70.8087045395852,68.96800162677908,4.0,4.1,-163,-273,0,-5,159,-273,275.7956464290619,275.79573035240173,275.7990183830261,275.81060910224915,275.9586374759674,275.9586374759674,275.9586374759674,275.9586374759674,275.9586374759674,275.9586374759674,275.9586374759674,279.1617040634155,3,3.3364455699920654,None,,,,,,,,,,,,,,,,,,2,1,2025-02-11_14h52.07.220,comp,2024.2.5,56.739820648064104,2025-02-11 14h52.15.414472 -0500,
99,99,0,critical,hwd,60.0,3.0,lower,133.0,57.0,57.0,133.0,55.0,55.0,2,1.0484778881072998,None,,,,,0,0,0,0,0,99,99,104,279.1782138347626,,,,,,,,,,,,,,,,,,,,,,,,,,,,,,,,,,,,,,,,,,,,,,,,,,,,,,,,,,,,,,,,,,,,,,,,,,,,,,,,,133.0,57.0,57.0,133.0,55.0,55.0,3.0,3.1,-191,262,0,-7,190,-273,279.16349029541016,279.16357493400574,279.16710662841797,279.1782138347626,279.3294563293457,279.3294563293457,279.3294563293457,279.3294563293457,279.3294563293457,279.3294563293457,279.3294563293457,280.2436728477478,2,1.0484778881072998,None,,,,,,,,,,,,,,,,,,2,1,2025-02-11_14h52.07.220,comp,2024.2.5,56.739820648064104,2025-02-11 14h52.15.414472 -0500,
100,100,0,critical,hwd,45.0,2.1,lower,133.0,57.0,57.0,133.0,65.0,65.0,1,1.2160162925720215,None,,,,,0,0,0,0,0,100,100,16,280.25944423675537,,,,,,,,,,,,,,,,,,,,,,,,,,,,,,,,,,,,,,,,,,,,,,,,,,,,,,,,,,,,,,,,,,,,,,,,,,,,,,,,,133.0,57.0,57.0,133.0,65.0,65.0,2.1,2.11,-191,252,0,254,195,-255,280.24537539482117,280.24545884132385,280.2490985393524,280.25944423675537,280.4082169532776,280.4082169532776,280.4082169532776,280.4082169532776,280.4082169532776,280.4082169532776,280.4082169532776,281.4779312610626,1,1.2160162925720215,None,,,,,,,,,,,,,,,,,,2,1,2025-02-11_14h52.07.220,comp,2024.2.5,56.739820648064104,2025-02-11 14h52.15.414472 -0500,
101,101,0,critical,dwh,45.0,2.1,upper,117.0,117.0,125.0,200.0,200.0,125.0,2,2.108553647994995,None,,,,,0,0,0,0,0,101,101,5,281.49402689933777,,,,,,,,,,,,,,,,,,,,,,,,,,,,,,,,,,,,,,,,,,,,,,,,,,,,,,,,,,,,,,,,,,,,,,,,,,,,,,,,,117.0,117.0,125.0,200.0,200.0,125.0,2.1,2.11,-254,254,0,272,258,-272,281.47949266433716,281.47957491874695,281.48319244384766,281.49402689933777,281.6507818698883,281.6507818698883,281.6507818698883,281.6507818698883,281.6507818698883,281.6507818698883,281.6507818698883,283.61370611190796,2,2.108553647994995,None,,,,,,,,,,,,,,,,,,2,1,2025-02-11_14h52.07.220,comp,2024.2.5,56.739820648064104,2025-02-11 14h52.15.414472 -0500,
102,102,0,critical,dhw,60.0,2.1,lower,55.0,55.0,133.0,57.0,57.0,133.0,3,3.1652495861053467,None,,,,,0,0,0,0,0,102,102,2,283.62955951690674,,,,,,,,,,,,,,,,,,,,,,,,,,,,,,,,,,,,,,,,,,,,,,,,,,,,,,,,,,,,,,,,,,,,,,,,,,,,,,,,,55.0,55.0,133.0,57.0,57.0,133.0,2.1,2.12,-152,-260,0,-268,191,280,283.6154086589813,283.61549520492554,283.6186468601227,283.62955951690674,283.77632546424866,283.77632546424866,283.77632546424866,283.77632546424866,283.77632546424866,283.77632546424866,283.77632546424866,286.80986523628235,3,3.1652495861053467,None,,,,,,,,,,,,,,,,,,2,1,2025-02-11_14h52.07.220,comp,2024.2.5,56.739820648064104,2025-02-11 14h52.15.414472 -0500,
103,103,0,critical,hwd,60.0,1.0,upper,200.0,125.0,125.0,200.0,100.0,100.0,2,1.1682562828063965,None,,,,,0,0,0,0,0,103,103,103,286.82666397094727,,,,,,,,,,,,,,,,,,,,,,,,,,,,,,,,,,,,,,,,,,,,,,,,,,,,,,,,,,,,,,,,,,,,,,,,,,,,,,,,,200.0,125.0,125.0,200.0,100.0,100.0,1.0,1.2,-258,1,0,2,246,17,286.81139183044434,286.8114719390869,286.81475019454956,286.82666397094727,286.9631254673004,286.9631254673004,286.9631254673004,286.9631254673004,286.9631254673004,286.9631254673004,286.9631254673004,287.99849700927734,2,1.1682562828063965,None,,,,,,,,,,,,,,,,,,2,1,2025-02-11_14h52.07.220,comp,2024.2.5,56.739820648064104,2025-02-11 14h52.15.414472 -0500,
104,104,0,critical,dwh,60.0,3.0,lower,55.0,55.0,57.0,133.0,133.0,57.0,3,5.3714439868927,None,,,,,0,0,0,0,0,104,104,68,288.0152978897095,,,,,,,,,,,,,,,,,,,,,,,,,,,,,,,,,,,,,,,,,,,,,,,,,,,,,,,,,,,,,,,,,,,,,,,,,,,,,,,,,55.0,55.0,57.0,133.0,133.0,57.0,3.0,3.1,-190,276,0,14,191,-258,288.00029158592224,288.00042629241943,288.0036599636078,288.0152978897095,288.1629602909088,288.1629602909088,288.1629602909088,288.1629602909088,288.1629602909088,288.1629602909088,288.1629602909088,293.39650893211365,3,5.3714439868927,None,,,,,,,,,,,,,,,,,,2,1,2025-02-11_14h52.07.220,comp,2024.2.5,56.739820648064104,2025-02-11 14h52.15.414472 -0500,
105,105,0,filler_random,None,None,None,None,None,None,None,None,None,None,2,1.317232608795166,None,,,,,0,0,0,0,0,105,105,145,293.41350984573364,,,,,,,,,,,,,,,,,,,,,,,,,,,,,,,,,,,,,,,,,,,,,,,,,,,,,,,,,,,,,,,,,,,,,,,,,,,,,,,,,86.58039697864962,178.2175945482935,175.8738320764325,157.75526935308625,81.78539417462954,171.11683999273234,4.0,4.2,-264,-6,0,-255,260,4,293.3982970714569,293.398432970047,293.40167593955994,293.41350984573364,293.5662305355072,293.5662305355072,293.5662305355072,293.5662305355072,293.5662305355072,293.5662305355072,293.5662305355072,294.7327046394348,2,1.317232608795166,None,,,,,,,,,,,,,,,,,,2,1,2025-02-11_14h52.07.220,comp,2024.2.5,56.739820648064104,2025-02-11 14h52.15.414472 -0500,
106,106,0,critical,hdw,45.0,4.0,lower,133.0,57.0,65.0,65.0,57.0,133.0,3,1.1737580299377441,None,,,,,0,0,0,0,0,106,106,112,294.74898314476013,,,,,,,,,,,,,,,,,,,,,,,,,,,,,,,,,,,,,,,,,,,,,,,,,,,,,,,,,,,,,,,,,,,,,,,,,,,,,,,,,133.0,57.0,65.0,65.0,57.0,133.0,4.0,4.2,-157,-2,0,-277,195,-20,294.7345154285431,294.7345976829529,294.7381329536438,294.74898314476013,294.89796710014343,294.89796710014343,294.89796710014343,294.89796710014343,294.89796710014343,294.89796710014343,294.89796710014343,295.9335343837738,3,1.1737580299377441,None,,,,,,,,,,,,,,,,,,2,1,2025-02-11_14h52.07.220,comp,2024.2.5,56.739820648064104,2025-02-11 14h52.15.414472 -0500,
107,107,0,critical,hdw,60.0,1.0,lower,133.0,57.0,55.0,55.0,57.0,133.0,1,1.5969336032867432,None,,,,,0,0,0,0,0,107,107,114,295.9500494003296,,,,,,,,,,,,,,,,,,,,,,,,,,,,,,,,,,,,,,,,,,,,,,,,,,,,,,,,,,,,,,,,,,,,,,,,,,,,,,,,,133.0,57.0,55.0,55.0,57.0,133.0,1.0,1.2,-152,-3,0,-7,190,16,295.9350643157959,295.9351575374603,295.9392545223236,295.9500494003296,296.10493302345276,296.10493302345276,296.10493302345276,296.10493302345276,296.10493302345276,296.10493302345276,296.10493302345276,297.5655150413513,1,1.5969336032867432,None,,,,,,,,,,,,,,,,,,2,1,2025-02-11_14h52.07.220,comp,2024.2.5,56.739820648064104,2025-02-11 14h52.15.414472 -0500,
108,108,0,filler_square,None,None,None,None,None,None,None,None,None,None,2,1.2298872470855713,None,,,,,0,0,0,0,0,108,108,197,297.5814793109894,,,,,,,,,,,,,,,,,,,,,,,,,,,,,,,,,,,,,,,,,,,,,,,,,,,,,,,,,,,,,,,,,,,,,,,,,,,,,,,,,73.18375802971619,141.8018508810306,171.2289149067118,169.42284992879527,183.24646675574812,183.24646675574812,1.0,1.2,-252,-4,0,-11,272,-9,297.56731152534485,297.56738924980164,297.57042026519775,297.5814793109894,297.7391562461853,297.7391562461853,297.7391562461853,297.7391562461853,297.7391562461853,297.7391562461853,297.7391562461853,298.8269500732422,2,1.2298872470855713,None,,,,,,,,,,,,,,,,,,2,1,2025-02-11_14h52.07.220,comp,2024.2.5,56.739820648064104,2025-02-11 14h52.15.414472 -0500,
109,109,0,critical,dwh,45.0,2.1,upper,117.0,117.0,125.0,200.0,200.0,125.0,2,1.1602559089660645,None,,,,,0,0,0,0,0,109,109,29,298.84269285202026,,,,,,,,,,,,,,,,,,,,,,,,,,,,,,,,,,,,,,,,,,,,,,,,,,,,,,,,,,,,,,,,,,,,,,,,,,,,,,,,,117.0,117.0,125.0,200.0,200.0,125.0,2.1,2.12,-254,-273,0,-277,258,272,298.8284549713135,298.828533411026,298.83142256736755,298.84269285202026,298.9859187602997,298.9859187602997,298.9859187602997,298.9859187602997,298.9859187602997,298.9859187602997,298.9859187602997,300.015634059906,2,1.1602559089660645,None,,,,,,,,,,,,,,,,,,2,1,2025-02-11_14h52.07.220,comp,2024.2.5,56.739820648064104,2025-02-11 14h52.15.414472 -0500,
110,110,0,critical,dhw,45.0,1.0,upper,117.0,117.0,200.0,125.0,125.0,200.0,2,0.93935227394104,None,,,,,0,0,0,0,0,110,110,49,300.0316255092621,,,,,,,,,,,,,,,,,,,,,,,,,,,,,,,,,,,,,,,,,,,,,,,,,,,,,,,,,,,,,,,,,,,,,,,,,,,,,,,,,117.0,117.0,200.0,125.0,125.0,200.0,1.0,1.1,-697,272,-480,257,-222,286,300.01719760894775,300.01727509498596,300.02030515670776,300.0316255092621,300.18045258522034,300.18045258522034,300.18045258522034,300.18045258522034,300.18045258522034,300.18045258522034,300.18045258522034,300.9861636161804,2,0.93935227394104,None,,,,,,,,,,,,,,,,,,2,1,2025-02-11_14h52.07.220,comp,2024.2.5,56.739820648064104,2025-02-11 14h52.15.414472 -0500,
111,111,0,critical,hwd,60.0,2.1,upper,200.0,125.0,125.0,200.0,100.0,100.0,1,1.6007819175720215,None,,,,,0,0,0,0,0,111,111,19,301.00209522247314,,,,,,,,,,,,,,,,,,,,,,,,,,,,,,,,,,,,,,,,,,,,,,,,,,,,,,,,,,,,,,,,,,,,,,,,,,,,,,,,,200.0,125.0,125.0,200.0,100.0,100.0,2.1,2.12,-258,-279,0,-267,246,280,300.98775839805603,300.9878740310669,300.99181628227234,301.00209522247314,301.1540243625641,301.1540243625641,301.1540243625641,301.1540243625641,301.1540243625641,301.1540243625641,301.1540243625641,302.6176300048828,1,1.6007819175720215,None,,,,,,,,,,,,,,,,,,2,1,2025-02-11_14h52.07.220,comp,2024.2.5,56.739820648064104,2025-02-11 14h52.15.414472 -0500,
112,112,0,critical,wdh,45.0,3.0,lower,57.0,133.0,65.0,65.0,133.0,57.0,3,1.6194391250610352,None,,,,,0,0,0,0,0,112,112,74,302.63187980651855,,,,,,,,,,,,,,,,,,,,,,,,,,,,,,,,,,,,,,,,,,,,,,,,,,,,,,,,,,,,,,,,,,,,,,,,,,,,,,,,,57.0,133.0,65.0,65.0,133.0,57.0,3.0,3.2,-195,-280,0,9,157,284,302.61937856674194,302.6194820404053,302.62270641326904,302.63187980651855,302.7724313735962,302.7724313735962,302.7724313735962,302.7724313735962,302.7724313735962,302.7724313735962,302.7724313735962,304.26811695098877,3,1.6194391250610352,None,,,,,,,,,,,,,,,,,,2,1,2025-02-11_14h52.07.220,comp,2024.2.5,56.739820648064104,2025-02-11 14h52.15.414472 -0500,
113,113,0,filler_square,None,None,None,None,None,None,None,None,None,None,3,1.431342363357544,None,,,,,0,0,0,0,0,113,113,174,304.2840793132782,,,,,,,,,,,,,,,,,,,,,,,,,,,,,,,,,,,,,,,,,,,,,,,,,,,,,,,,,,,,,,,,,,,,,,,,,,,,,,,,,69.47417204583977,69.5069118177536,70.0143337945247,160.38536425812015,170.76578998065617,170.76578998065617,2.1,2.11,-211,267,0,264,262,-277,304.27011346817017,304.27022409439087,304.2737057209015,304.2840793132782,304.4338529109955,304.4338529109955,304.4338529109955,304.4338529109955,304.4338529109955,304.4338529109955,304.4338529109955,305.7248818874359,3,1.431342363357544,None,,,,,,,,,,,,,,,,,,2,1,2025-02-11_14h52.07.220,comp,2024.2.5,56.739820648064104,2025-02-11 14h52.15.414472 -0500,
114,114,0,filler_random,None,None,None,None,None,None,None,None,None,None,1,2.953827142715454,None,,,,,0,0,0,0,0,114,114,148,305.74511218070984,,,,,,,,,,,,,,,,,,,,,,,,,,,,,,,,,,,,,,,,,,,,,,,,,,,,,,,,,,,,,,,,,,,,,,,,,,,,,,,,,101.33259814681512,98.17144005731379,65.82354238026109,132.38706276351377,96.27292517002186,84.02221754793788,4.0,4.1,-211,-276,0,-2,204,-277,305.726603269577,305.7266824245453,305.72958159446716,305.74511218070984,305.88231348991394,305.88231348991394,305.88231348991394,305.88231348991394,305.88231348991394,305.88231348991394,305.88231348991394,308.70308113098145,1,2.953827142715454,None,,,,,,,,,,,,,,,,,,2,1,2025-02-11_14h52.07.220,comp,2024.2.5,56.739820648064104,2025-02-11 14h52.15.414472 -0500,
115,115,0,critical,dhw,45.0,1.0,lower,65.0,65.0,133.0,57.0,57.0,133.0,3,1.2605836391448975,None,,,,,0,0,0,0,0,115,115,48,308.71927881240845,,,,,,,,,,,,,,,,,,,,,,,,,,,,,,,,,,,,,,,,,,,,,,,,,,,,,,,,,,,,,,,,,,,,,,,,,,,,,,,,,65.0,65.0,133.0,57.0,57.0,133.0,1.0,1.3,323,-252,480,-274,671,-264,308.7047119140625,308.7048704624176,308.7083284854889,308.71927881240845,308.8686921596527,308.8686921596527,308.8686921596527,308.8686921596527,308.8686921596527,308.8686921596527,308.8686921596527,309.98493552207947,3,1.2605836391448975,None,,,,,,,,,,,,,,,,,,2,1,2025-02-11_14h52.07.220,comp,2024.2.5,56.739820648064104,2025-02-11 14h52.15.414472 -0500,
116,116,0,filler_random,None,None,None,None,None,None,None,None,None,None,1,2.6825368404388428,None,,,,,0,0,0,0,0,116,116,157,310.00069856643677,,,,,,,,,,,,,,,,,,,,,,,,,,,,,,,,,,,,,,,,,,,,,,,,,,,,,,,,,,,,,,,,,,,,,,,,,,,,,,,,,154.6880293787122,120.46894124893271,154.65540540835934,124.90270068179159,135.4527661912584,160.47541291004984,1.0,1.1,-699,273,-480,274,-241,259,309.9867796897888,309.9869420528412,309.9903450012207,310.00069856643677,310.1598889827728,310.1598889827728,310.1598889827728,310.1598889827728,310.1598889827728,310.1598889827728,310.1598889827728,312.68775367736816,1,2.6825368404388428,None,,,,,,,,,,,,,,,,,,2,1,2025-02-11_14h52.07.220,comp,2024.2.5,56.739820648064104,2025-02-11 14h52.15.414472 -0500,
117,117,0,critical,whd,45.0,3.0,upper,125.0,200.0,200.0,125.0,117.0,117.0,1,2.0034470558166504,None,,,,,0,0,0,0,0,117,117,87,312.70353841781616,,,,,,,,,,,,,,,,,,,,,,,,,,,,,,,,,,,,,,,,,,,,,,,,,,,,,,,,,,,,,,,,,,,,,,,,,,,,,,,,,125.0,200.0,200.0,125.0,117.0,117.0,3.0,3.2,-258,-253,0,5,217,263,312.68925309181213,312.6893343925476,312.6926414966583,312.70353841781616,312.86007261276245,312.86007261276245,312.86007261276245,312.86007261276245,312.86007261276245,312.86007261276245,312.86007261276245,314.72133708000183,1,2.0034470558166504,None,,,,,,,,,,,,,,,,,,2,1,2025-02-11_14h52.07.220,comp,2024.2.5,56.739820648064104,2025-02-11 14h52.15.414472 -0500,
118,118,0,filler_square,None,None,None,None,None,None,None,None,None,None,1,1.5913503170013428,None,,,,,0,0,0,0,0,118,118,192,314.7412438392639,,,,,,,,,,,,,,,,,,,,,,,,,,,,,,,,,,,,,,,,,,,,,,,,,,,,,,,,,,,,,,,,,,,,,,,,,,,,,,,,,154.4447140916576,154.4447140916576,135.52247964513043,80.20078816103461,110.46813757325194,139.88233112056454,2.2,2.22,-213,265,0,-283,206,-273,314.723130941391,314.7232098579407,314.72637605667114,314.7412438392639,314.8887310028076,314.8887310028076,314.8887310028076,314.8887310028076,314.8887310028076,314.8887310028076,314.8887310028076,316.3421070575714,1,1.5913503170013428,None,,,,,,,,,,,,,,,,,,2,1,2025-02-11_14h52.07.220,comp,2024.2.5,56.739820648064104,2025-02-11 14h52.15.414472 -0500,
119,119,0,critical,hdw,60.0,2.1,upper,200.0,125.0,100.0,100.0,125.0,200.0,3,2.3120827674865723,None,,,,,0,0,0,0,0,119,119,47,316.36296939849854,,,,,,,,,,,,,,,,,,,,,,,,,,,,,,,,,,,,,,,,,,,,,,,,,,,,,,,,,,,,,,,,,,,,,,,,,,,,,,,,,200.0,125.0,100.0,100.0,125.0,200.0,2.1,2.12,-208,-287,0,-287,246,281,316.34364008903503,316.3437731266022,316.34736943244934,316.36296939849854,316.50621819496155,316.50621819496155,316.50621819496155,316.50621819496155,316.50621819496155,316.50621819496155,316.50621819496155,318.68816447257996,3,2.3120827674865723,None,,,,,,,,,,,,,,,,,,2,1,2025-02-11_14h52.07.220,comp,2024.2.5,56.739820648064104,2025-02-11 14h52.15.414472 -0500,
120,120,0,critical,hdw,60.0,4.0,upper,200.0,125.0,100.0,100.0,125.0,200.0,3,0.9522202014923096,None,,,,,0,0,0,0,0,120,120,119,318.706773519516,,,,,,,,,,,,,,,,,,,,,,,,,,,,,,,,,,,,,,,,,,,,,,,,,,,,,,,,,,,,,,,,,,,,,,,,,,,,,,,,,200.0,125.0,100.0,100.0,125.0,200.0,4.0,4.2,-208,-9,0,-276,246,11,318.6897716522217,318.68991351127625,318.6932234764099,318.706773519516,318.8552920818329,318.8552920818329,318.8552920818329,318.8552920818329,318.8552920818329,318.8552920818329,318.8552920818329,319.6734793186188,3,0.9522202014923096,None,,,,,,,,,,,,,,,,,,2,1,2025-02-11_14h52.07.220,comp,2024.2.5,56.739820648064104,2025-02-11 14h52.15.414472 -0500,
121,121,0,filler_random,None,None,None,None,None,None,None,None,None,None,2,0.8336977958679199,None,,,,,0,0,0,0,0,121,121,165,319.6895661354065,,,,,,,,,,,,,,,,,,,,,,,,,,,,,,,,,,,,,,,,,,,,,,,,,,,,,,,,,,,,,,,,,,,,,,,,,,,,,,,,,111.87693954780084,92.6722300636638,185.8185245728257,123.54161822640681,85.695499651734,146.0970401442363,3.0,3.1,-204,279,0,-13,231,-287,319.6752209663391,319.6752977371216,319.67858147621155,319.6895661354065,319.840505361557,319.840505361557,319.840505361557,319.840505361557,319.840505361557,319.840505361557,319.840505361557,320.5260796546936,2,0.8336977958679199,None,,,,,,,,,,,,,,,,,,2,1,2025-02-11_14h52.07.220,comp,2024.2.5,56.739820648064104,2025-02-11 14h52.15.414472 -0500,
122,122,0,filler_random,None,None,None,None,None,None,None,None,None,None,1,1.7289080619812012,None,,,,,0,0,0,0,0,122,122,164,320.5461525917053,,,,,,,,,,,,,,,,,,,,,,,,,,,,,,,,,,,,,,,,,,,,,,,,,,,,,,,,,,,,,,,,,,,,,,,,,,,,,,,,,64.50369548408106,183.8687325947625,60.87485078029785,143.44239016233385,62.80495446912923,107.38925667156863,4.0,4.2,-260,3,0,-252,221,-4,320.52810883522034,320.5281991958618,320.5315134525299,320.5461525917053,320.6917712688446,320.6917712688446,320.6917712688446,320.6917712688446,320.6917712688446,320.6917712688446,320.6917712688446,322.2917387485504,1,1.7289080619812012,None,,,,,,,,,,,,,,,,,,2,1,2025-02-11_14h52.07.220,comp,2024.2.5,56.739820648064104,2025-02-11 14h52.15.414472 -0500,
123,123,0,filler_random,None,None,None,None,None,None,None,None,None,None,2,0.8562800884246826,None,,,,,0,0,0,0,0,123,123,154,322.30732107162476,,,,,,,,,,,,,,,,,,,,,,,,,,,,,,,,,,,,,,,,,,,,,,,,,,,,,,,,,,,,,,,,,,,,,,,,,,,,,,,,,102.97671405005785,64.3475619860738,79.62039106695002,132.53811465884365,80.46286913979584,95.84772791239223,4.0,4.2,-194,10,0,-283,210,18,322.2935109138489,322.2936050891876,322.2968065738678,322.30732107162476,322.4592866897583,322.4592866897583,322.4592866897583,322.4592866897583,322.4592866897583,322.4592866897583,322.4592866897583,323.17972898483276,2,0.8562800884246826,None,,,,,,,,,,,,,,,,,,2,1,2025-02-11_14h52.07.220,comp,2024.2.5,56.739820648064104,2025-02-11 14h52.15.414472 -0500,
124,124,0,filler_random,None,None,None,None,None,None,None,None,None,None,3,1.3119547367095947,None,,,,,0,0,0,0,0,124,124,139,323.19563269615173,,,,,,,,,,,,,,,,,,,,,,,,,,,,,,,,,,,,,,,,,,,,,,,,,,,,,,,,,,,,,,,,,,,,,,,,,,,,,,,,,126.77433356664312,62.33573163320287,85.38062355105883,151.3384747841958,144.85703147487067,142.90089193710787,4.0,4.2,-203,-15,0,-285,243,20,323.1814751625061,323.1815550327301,323.184410572052,323.19563269615173,323.341028213501,323.341028213501,323.341028213501,323.341028213501,323.341028213501,323.341028213501,323.341028213501,324.52480006217957,3,1.3119547367095947,None,,,,,,,,,,,,,,,,,,2,1,2025-02-11_14h52.07.220,comp,2024.2.5,56.739820648064104,2025-02-11 14h52.15.414472 -0500,
125,125,0,critical,dwh,60.0,1.0,upper,100.0,100.0,125.0,200.0,200.0,125.0,2,1.9673774242401123,None,,,,,0,0,0,0,0,125,125,67,324.5405123233795,,,,,,,,,,,,,,,,,,,,,,,,,,,,,,,,,,,,,,,,,,,,,,,,,,,,,,,,,,,,,,,,,,,,,,,,,,,,,,,,,100.0,100.0,125.0,200.0,200.0,125.0,1.0,1.1,-726,279,-480,252,-222,256,324.5264811515808,324.5265619754791,324.5301604270935,324.5405123233795,324.69590163230896,324.69590163230896,324.69590163230896,324.69590163230896,324.69590163230896,324.69590163230896,324.69590163230896,326.51309967041016,2,1.9673774242401123,None,,,,,,,,,,,,,,,,,,2,1,2025-02-11_14h52.07.220,comp,2024.2.5,56.739820648064104,2025-02-11 14h52.15.414472 -0500,
126,126,0,catch,None,None,None,None,None,None,None,None,None,None,3,0.7549948692321777,None,,,,,0,0,0,0,0,126,126,128,326.5296549797058,,,,,,,,,,,,,,,,,,,,,,,,,,,,,,,,,,,,,,,,,,,,,,,,,,,,,,,,,,,,,,,,,,,,,,,,,,,,,,,,,130,60,133,57,168,157,2.2,2.21,-154,-289,0,280,203,274,326.51536202430725,326.51544427871704,326.5188069343567,326.5296549797058,326.67813372612,326.67813372612,326.67813372612,326.67813372612,326.67813372612,326.67813372612,326.67813372612,327.29069423675537,3,0.7549948692321777,None,,,,,,,,,,,,,,,,,,2,1,2025-02-11_14h52.07.220,comp,2024.2.5,56.739820648064104,2025-02-11 14h52.15.414472 -0500,
127,127,0,critical,wdh,45.0,2.1,upper,125.0,200.0,117.0,117.0,200.0,125.0,1,1.3605659008026123,None,,,,,0,0,0,0,0,127,127,33,327.30722975730896,,,,,,,,,,,,,,,,,,,,,,,,,,,,,,,,,,,,,,,,,,,,,,,,,,,,,,,,,,,,,,,,,,,,,,,,,,,,,,,,,125.0,200.0,117.0,117.0,200.0,125.0,2.1,2.12,-254,-289,0,-255,217,264,327.2922613620758,327.29234194755554,327.29524326324463,327.30722975730896,327.45914912223816,327.45914912223816,327.45914912223816,327.45914912223816,327.45914912223816,327.45914912223816,327.45914912223816,328.67569613456726,1,1.3605659008026123,None,,,,,,,,,,,,,,,,,,2,1,2025-02-11_14h52.07.220,comp,2024.2.5,56.739820648064104,2025-02-11 14h52.15.414472 -0500,
128,128,0,critical,wdh,60.0,2.1,upper,125.0,200.0,100.0,100.0,200.0,125.0,1,0.9191539287567139,None,,,,,0,0,0,0,0,128,128,11,328.69241309165955,,,,,,,,,,,,,,,,,,,,,,,,,,,,,,,,,,,,,,,,,,,,,,,,,,,,,,,,,,,,,,,,,,,,,,,,,,,,,,,,,125.0,200.0,100.0,100.0,200.0,125.0,2.1,2.11,-246,282,0,281,208,-279,328.67738032341003,328.6774580478668,328.68087220191956,328.69241309165955,328.8427872657776,328.8427872657776,328.8427872657776,328.8427872657776,328.8427872657776,328.8427872657776,328.8427872657776,329.61444544792175,1,0.9191539287567139,None,,,,,,,,,,,,,,,,,,2,1,2025-02-11_14h52.07.220,comp,2024.2.5,56.739820648064104,2025-02-11 14h52.15.414472 -0500,
129,129,0,filler_square,None,None,None,None,None,None,None,None,None,None,1,0.9783391952514648,None,,,,,0,0,0,0,0,129,129,186,329.6333427429199,,,,,,,,,,,,,,,,,,,,,,,,,,,,,,,,,,,,,,,,,,,,,,,,,,,,,,,,,,,,,,,,,,,,,,,,,,,,,,,,,169.52532015013628,169.52532015013628,100.02331325075191,107.29148502453427,131.13077539071975,111.87624662427852,2.2,2.21,-234,-254,0,274,206,290,329.6163139343262,329.61640644073486,329.6193518638611,329.6333427429199,329.776079416275,329.776079416275,329.776079416275,329.776079416275,329.776079416275,329.776079416275,329.776079416275,330.6160500049591,1,0.9783391952514648,None,,,,,,,,,,,,,,,,,,2,1,2025-02-11_14h52.07.220,comp,2024.2.5,56.739820648064104,2025-02-11 14h52.15.414472 -0500,
130,130,0,critical,hwd,45.0,3.0,lower,133.0,57.0,57.0,133.0,65.0,65.0,2,2.74343204498291,None,,,,,0,0,0,0,0,130,130,98,330.6357207298279,,,,,,,,,,,,,,,,,,,,,,,,,,,,,,,,,,,,,,,,,,,,,,,,,,,,,,,,,,,,,,,,,,,,,,,,,,,,,,,,,133.0,57.0,57.0,133.0,65.0,65.0,3.0,3.2,-191,-279,0,-14,195,280,330.6175892353058,330.6176710128784,330.620569229126,330.6357207298279,330.77727460861206,330.77727460861206,330.77727460861206,330.77727460861206,330.77727460861206,330.77727460861206,330.77727460861206,333.391813993454,2,2.74343204498291,None,,,,,,,,,,,,,,,,,,2,1,2025-02-11_14h52.07.220,comp,2024.2.5,56.739820648064104,2025-02-11 14h52.15.414472 -0500,
131,131,0,filler_random,None,None,None,None,None,None,None,None,None,None,2,1.1473357677459717,None,,,,,0,0,0,0,0,131,131,142,333.4083640575409,,,,,,,,,,,,,,,,,,,,,,,,,,,,,,,,,,,,,,,,,,,,,,,,,,,,,,,,,,,,,,,,,,,,,,,,,,,,,,,,,70.87074702532489,165.85062223240317,139.8377809467857,195.23020190026864,62.350781515622096,103.2976803885964,4.0,4.2,-277,2,0,-274,245,-8,333.39352440834045,333.393652677536,333.39690685272217,333.4083640575409,333.5642921924591,333.5642921924591,333.5642921924591,333.5642921924591,333.5642921924591,333.5642921924591,333.5642921924591,334.5605158805847,2,1.1473357677459717,None,,,,,,,,,,,,,,,,,,2,1,2025-02-11_14h52.07.220,comp,2024.2.5,56.739820648064104,2025-02-11 14h52.15.414472 -0500,
132,132,0,filler_square,None,None,None,None,None,None,None,None,None,None,1,3.1066513061523438,None,,,,,0,0,0,0,0,132,132,199,334.57843542099,,,,,,,,,,,,,,,,,,,,,,,,,,,,,,,,,,,,,,,,,,,,,,,,,,,,,,,,,,,,,,,,,,,,,,,,,,,,,,,,,94.35386772759142,94.35386772759142,87.04287953066475,92.32423515941943,89.93318901213846,62.18501409943123,1.0,1.2,-189,3,0,-2,173,10,334.562513589859,334.56259298324585,334.5658755302429,334.57843542099,334.7281081676483,334.7281081676483,334.7281081676483,334.7281081676483,334.7281081676483,334.7281081676483,334.7281081676483,337.69368028640747,1,3.1066513061523438,None,,,,,,,,,,,,,,,,,,2,1,2025-02-11_14h52.07.220,comp,2024.2.5,56.739820648064104,2025-02-11 14h52.15.414472 -0500,
133,133,0,critical,hwd,45.0,2.1,lower,133.0,57.0,57.0,133.0,65.0,65.0,2,1.6245462894439697,None,,,,,0,0,0,0,0,133,133,40,337.7147386074066,,,,,,,,,,,,,,,,,,,,,,,,,,,,,,,,,,,,,,,,,,,,,,,,,,,,,,,,,,,,,,,,,,,,,,,,,,,,,,,,,133.0,57.0,57.0,133.0,65.0,65.0,2.1,2.11,-191,255,0,251,195,-266,337.6952702999115,337.69534945487976,337.698771238327,337.7147386074066,337.84743642807007,337.84743642807007,337.84743642807007,337.84743642807007,337.84743642807007,337.84743642807007,337.84743642807007,339.3521885871887,2,1.6245462894439697,None,,,,,,,,,,,,,,,,,,2,1,2025-02-11_14h52.07.220,comp,2024.2.5,56.739820648064104,2025-02-11 14h52.15.414472 -0500,
134,134,0,critical,wdh,60.0,1.0,lower,57.0,133.0,55.0,55.0,133.0,57.0,1,2.019209384918213,None,,,,,0,0,0,0,0,134,134,78,339.3687744140625,,,,,,,,,,,,,,,,,,,,,,,,,,,,,,,,,,,,,,,,,,,,,,,,,,,,,,,,,,,,,,,,,,,,,,,,,,,,,,,,,57.0,133.0,55.0,55.0,133.0,57.0,1.0,1.2,-190,0,0,17,152,-18,339.35376620292664,339.3538975715637,339.35726404190063,339.3687744140625,339.5148572921753,339.5148572921753,339.5148572921753,339.5148572921753,339.5148572921753,339.5148572921753,339.5148572921753,341.3959391117096,1,2.019209384918213,None,,,,,,,,,,,,,,,,,,2,1,2025-02-11_14h52.07.220,comp,2024.2.5,56.739820648064104,2025-02-11 14h52.15.414472 -0500,
135,135,0,critical,hdw,60.0,2.1,upper,200.0,125.0,100.0,100.0,125.0,200.0,1,1.1034572124481201,None,,,,,0,0,0,0,0,135,135,23,341.41226291656494,,,,,,,,,,,,,,,,,,,,,,,,,,,,,,,,,,,,,,,,,,,,,,,,,,,,,,,,,,,,,,,,,,,,,,,,,,,,,,,,,200.0,125.0,100.0,100.0,125.0,200.0,2.1,2.11,-208,251,0,267,246,-258,341.3974766731262,341.3975555896759,341.40066623687744,341.41226291656494,341.56723976135254,341.56723976135254,341.56723976135254,341.56723976135254,341.56723976135254,341.56723976135254,341.56723976135254,342.51813530921936,1,1.1034572124481201,None,,,,,,,,,,,,,,,,,,2,1,2025-02-11_14h52.07.220,comp,2024.2.5,56.739820648064104,2025-02-11 14h52.15.414472 -0500,
136,136,0,critical,wdh,60.0,1.0,upper,125.0,200.0,100.0,100.0,200.0,125.0,3,2.900329828262329,None,,,,,0,0,0,0,0,136,136,79,342.5350978374481,,,,,,,,,,,,,,,,,,,,,,,,,,,,,,,,,,,,,,,,,,,,,,,,,,,,,,,,,,,,,,,,,,,,,,,,,,,,,,,,,125.0,200.0,100.0,100.0,200.0,125.0,1.0,1.1,-726,278,-480,269,-272,254,342.51986503601074,342.51995038986206,342.52345061302185,342.5350978374481,342.68057107925415,342.68057107925415,342.68057107925415,342.68057107925415,342.68057107925415,342.68057107925415,342.68057107925415,345.44845247268677,3,2.900329828262329,None,,,,,,,,,,,,,,,,,,2,1,2025-02-11_14h52.07.220,comp,2024.2.5,56.739820648064104,2025-02-11 14h52.15.414472 -0500,
137,137,0,critical,hwd,45.0,1.0,upper,200.0,125.0,125.0,200.0,117.0,117.0,2,3.228891134262085,None,,,,,0,0,0,0,0,137,137,97,345.46455121040344,,,,,,,,,,,,,,,,,,,,,,,,,,,,,,,,,,,,,,,,,,,,,,,,,,,,,,,,,,,,,,,,,,,,,,,,,,,,,,,,,200.0,125.0,125.0,200.0,117.0,117.0,1.0,1.1,-738,272,-480,260,-226,265,345.4499599933624,345.4500398635864,345.45407581329346,345.46455121040344,345.61674666404724,345.61674666404724,345.61674666404724,345.61674666404724,345.61674666404724,345.61674666404724,345.61674666404724,348.6983766555786,2,3.228891134262085,None,,,,,,,,,,,,,,,,,,2,1,2025-02-11_14h52.07.220,comp,2024.2.5,56.739820648064104,2025-02-11 14h52.15.414472 -0500,
138,138,0,critical,dwh,45.0,2.1,lower,65.0,65.0,57.0,133.0,133.0,57.0,2,5.352662563323975,None,,,,,0,0,0,0,0,138,138,4,348.7150762081146,,,,,,,,,,,,,,,,,,,,,,,,,,,,,,,,,,,,,,,,,,,,,,,,,,,,,,,,,,,,,,,,,,,,,,,,,,,,,,,,,65.0,65.0,57.0,133.0,133.0,57.0,2.1,2.12,-195,-265,0,-259,191,257,348.69999980926514,348.70010113716125,348.7034146785736,348.7150762081146,348.87243247032166,348.87243247032166,348.87243247032166,348.87243247032166,348.87243247032166,348.87243247032166,348.87243247032166,354.08530473709106,2,5.352662563323975,None,,,,,,,,,,,,,,,,,,2,1,2025-02-11_14h52.07.220,comp,2024.2.5,56.739820648064104,2025-02-11 14h52.15.414472 -0500,
139,139,0,filler_random,None,None,None,None,None,None,None,None,None,None,1,2.327343702316284,None,,,,,0,0,0,0,0,139,139,156,354.1007227897644,,,,,,,,,,,,,,,,,,,,,,,,,,,,,,,,,,,,,,,,,,,,,,,,,,,,,,,,,,,,,,,,,,,,,,,,,,,,,,,,,183.43189540323527,174.46650373477758,153.08337465152306,77.45767984140545,145.92126785850056,195.53644736241412,3.0,3.2,-222,-284,0,1,232,252,354.0869369506836,354.0870144367218,354.09047079086304,354.1007227897644,354.2601549625397,354.2601549625397,354.2601549625397,354.2601549625397,354.2601549625397,354.2601549625397,354.2601549625397,356.43561601638794,1,2.327343702316284,None,,,,,,,,,,,,,,,,,,2,1,2025-02-11_14h52.07.220,comp,2024.2.5,56.739820648064104,2025-02-11 14h52.15.414472 -0500,
140,140,0,critical,hdw,45.0,3.0,lower,133.0,57.0,65.0,65.0,57.0,133.0,3,3.0465810298919678,None,,,,,0,0,0,0,0,140,140,110,356.4527461528778,,,,,,,,,,,,,,,,,,,,,,,,,,,,,,,,,,,,,,,,,,,,,,,,,,,,,,,,,,,,,,,,,,,,,,,,,,,,,,,,,133.0,57.0,65.0,65.0,57.0,133.0,3.0,3.1,-157,268,0,13,195,-268,356.43731141090393,356.437392950058,356.44155168533325,356.4527461528778,356.6004276275635,356.6004276275635,356.6004276275635,356.6004276275635,356.6004276275635,356.6004276275635,356.6004276275635,359.50336956977844,3,3.0465810298919678,None,,,,,,,,,,,,,,,,,,2,1,2025-02-11_14h52.07.220,comp,2024.2.5,56.739820648064104,2025-02-11 14h52.15.414472 -0500,
