thisN,thisTrialN,thisRepN,effect,order,distance,config,diag,h_1,w_1,h_2,w_2,h_3,w_3,rect_choice.keys,rect_choice.rt,rect_choice.duration,instructions_loop.thisRepN,instructions_loop.thisTrialN,instructions_loop.thisN,instructions_loop.thisIndex,blocks.thisRepN,blocks.thisTrialN,blocks.thisN,blocks.thisIndex,trials.thisRepN,trials.thisTrialN,trials.thisN,trials.thisIndex,thisRow.t,notes,consent.started,agree_button.started,decline_button.started,consent_img.started,mouse.started,consent.stopped,agree_button.numClicks,agree_button.timesOn,agree_button.timesOff,decline_button.numClicks,decline_button.timesOn,decline_button.timesOff,mouse.x,mouse.y,mouse.leftButton,mouse.midButton,mouse.rightButton,mouse.time,mouse.clicked_name,exp_params.started,exp_params.stopped,welcome.started,welcome_text.started,welcome.stopped,instructions_1.started,instructions_1_text_1.started,instructions_1_text_2.started,key_resp.started,instructions_1.stopped,instructions_loop.key_resp.keys,instructions_loop.key_resp.rt,instructions_loop.key_resp.duration,instructions_2.started,instructions_2_text_1.started,instructions_2_text_2.started,key_resp_2.started,instructions_2.stopped,instructions_loop.key_resp_2.keys,instructions_loop.key_resp_2.rt,instructions_loop.key_resp_2.duration,instructions_3.started,instructions_3_text_1.started,r1_instr3.started,r2_instr3.started,r3_instr3.started,r1_instr3_label.started,r2_instr3_label.started,r3_instr3_label.started,instructions_3_text_3.started,instructions_3_text_4.started,key_resp_3.started,instructions_3.stopped,instructions_loop.key_resp_3.keys,instructions_loop.key_resp_3.rt,instructions_loop.key_resp_3.duration,instructions_4.started,instructions_4_text_1.started,instructions_4_text_3.started,instructions_4_text_2.started,key_resp_4.started,instructions_4.stopped,instructions_loop.key_resp_4.keys,instructions_loop.key_resp_4.rt,instructions_loop.key_resp_4.duration,instructions_5.started,instructions_5_text_1.started,instructions_5_text_2.started,key_resp_5.started,instructions_5.stopped,instructions_loop.key_resp_5.keys,instructions_loop.key_resp_5.rt,instructions_loop.key_resp_5.duration,start_exp.started,start_exp_text.started,key_resp_6.started,start_exp.stopped,key_resp_6.keys,key_resp_6.rt,key_resp_6.duration,h_1_tmp,w_1_tmp,h_2_tmp,w_2_tmp,h_3_tmp,w_3_tmp,config_tmp,config_tmp_1,r_1_x,r_1_y,r_2_x,r_2_y,r_3_x,r_3_y,pre_trial.started,pre_trial.stopped,choice_trial.started,rect_choice.started,r_1.started,r_2.started,r_3.started,r_1_label.started,r_2_label.started,r_3_label.started,prompt.started,choice_trial.stopped,trials.rect_choice.keys,trials.rect_choice.rt,trials.rect_choice.duration,end_block.started,end_block_text.started,end_block.stopped,end.started,end_text.started,key_resp_7.started,end.stopped,key_resp_7.keys,key_resp_7.rt,key_resp_7.duration,debriefing.started,debrief_form.started,end_debrief.started,debriefing.stopped,end_debrief.keys,end_debrief.rt,end_debrief.duration,participant,computer,date,expName,psychopyVersion,frameRate,expStart,
,,,,,,,,,,,,,,,,,,,,,,,,,,,,,,,0.01465153694152832,0.06652688980102539,0.06652688980102539,0.06652688980102539,0.014444351196289062,49.83912706375122,1,[49.77021050453186],[49.770232915878296],0,,,[-60.0],[-502.0],[1],[0],[0],[49.80809497833252],['agree_button'],,,,,,,,,,,,,,,,,,,,,,,,,,,,,,,,,,,,,,,,,,,,,,,,,,,,,,,,,,,,,,,,,,,,,,,,,,,,,,,,,,,,,,,,,,,,,,,,,,,,,,,,,,,3,4,2025-02-11_15h00.05.893,comp,2024.2.5,None,2025-02-11 15h00.16.268953 -0500,
,,,,,,,,,,,,,,,,,,,,,,,,,,,,,,,,,,,,,,,,,,,,,,,,,,49.8396213054657,49.839680910110474,,,,,,,,,,,,,,,,,,,,,,,,,,,,,,,,,,,,,,,,,,,,,,,,,,,,,,,,,,,,,,,,,,,,,,,,,,,,,,,,,,,,,,,,,,,,,,,,,,,,,,,,,3,4,2025-02-11_15h00.05.893,comp,2024.2.5,None,2025-02-11 15h00.16.268953 -0500,
,,,,,,,,,,,,,,,,,,,,,,,,,,,,,,,,,,,,,,,,,,,,,,,,,,,,49.839720010757446,49.853060722351074,51.85160732269287,,,,,,,,,,,,,,,,,,,,,,,,,,,,,,,,,,,,,,,,,,,,,,,,,,,,,,,,,,,,,,,,,,,,,,,,,,,,,,,,,,,,,,,,,,,,,,,,,,,,,,3,4,2025-02-11_15h00.05.893,comp,2024.2.5,None,2025-02-11 15h00.16.268953 -0500,
0,0,0,,,,,,,,,,,,,,,0,0,0,0,,,,,,,,,51.867483377456665,,,,,,,,,,,,,,,,,,,,,,,,,,51.852489709854126,51.867483377456665,51.867483377456665,53.35091948509216,57.51994180679321,space,4.146974802017212,None,57.520087003707886,57.53860664367676,57.53860664367676,59.01948261260986,62.96960186958313,space,3.933868646621704,None,62.96976161003113,63.01847743988037,63.01847743988037,63.01847743988037,63.01847743988037,63.01847743988037,63.01847743988037,63.01847743988037,63.01847743988037,63.01847743988037,64.47444272041321,71.30795097351074,space,6.823072910308838,None,71.30810356140137,71.32744336128235,71.32744336128235,71.32744336128235,72.80744886398315,74.90775799751282,space,2.0983831882476807,None,74.90791201591492,74.92410397529602,74.92410397529602,76.40500974655151,76.65949702262878,space,0.252514123916626,None,76.65970611572266,76.67535519599915,76.67535519599915,77.77550840377808,space,1.0949673652648926,None,,,,,,,,,,,,,,,,,,,,,,,,,,,,,,,,,,,,,,,,,,,,,,,3,4,2025-02-11_15h00.05.893,comp,2024.2.5,None,2025-02-11 15h00.16.268953 -0500,
0,0,0,filler_random,None,None,None,None,None,None,None,None,None,None,2,2.4862701892852783,None,,,,,0,0,0,0,0,0,0,157,77.98802661895752,,,,,,,,,,,,,,,,,,,,,,,,,,,,,,,,,,,,,,,,,,,,,,,,,,,,,,,,,,,,,,,,,,,,,,,,,,,,,,,,,101.36740447276804,163.5752779446743,132.30697069525928,171.62478797291374,63.633499930658516,81.90494334624282,2.1,2.11,-264,285,0,258,223,-277,77.97127342224121,77.97131681442261,77.97271609306335,77.98802661895752,78.13602137565613,78.13602137565613,78.13602137565613,78.13602137565613,78.13602137565613,78.13602137565613,78.13602137565613,80.47990846633911,2,2.4862701892852783,None,,,,,,,,,,,,,,,,,,3,4,2025-02-11_15h00.05.893,comp,2024.2.5,None,2025-02-11 15h00.16.268953 -0500,
1,1,0,critical,dwh,60.0,2.1,lower,55.0,55.0,57.0,133.0,133.0,57.0,2,5.322940826416016,None,,,,,0,0,0,0,0,1,1,6,80.49593806266785,,,,,,,,,,,,,,,,,,,,,,,,,,,,,,,,,,,,,,,,,,,,,,,,,,,,,,,,,,,,,,,,,,,,,,,,,,,,,,,,,55.0,55.0,57.0,133.0,133.0,57.0,2.1,2.11,-190,254,0,268,191,-287,80.48155426979065,80.48163175582886,80.48484468460083,80.49593806266785,80.64547371864319,80.64547371864319,80.64547371864319,80.64547371864319,80.64547371864319,80.64547371864319,80.64547371864319,85.83052015304565,2,5.322940826416016,None,,,,,,,,,,,,,,,,,,3,4,2025-02-11_15h00.05.893,comp,2024.2.5,None,2025-02-11 15h00.16.268953 -0500,
2,2,0,filler_random,None,None,None,None,None,None,None,None,None,None,1,4.275218725204468,None,,,,,0,0,0,0,0,2,2,149,85.84720468521118,,,,,,,,,,,,,,,,,,,,,,,,,,,,,,,,,,,,,,,,,,,,,,,,,,,,,,,,,,,,,,,,,,,,,,,,,,,,,,,,,79.44026888168588,146.1351755695529,85.50581581414689,99.87142745038912,160.62430068620864,70.66125272397686,2.2,2.22,-219,272,0,-281,181,-273,85.83243751525879,85.83256435394287,85.83639526367188,85.84720468521118,85.99912452697754,85.99912452697754,85.99912452697754,85.99912452697754,85.99912452697754,85.99912452697754,85.99912452697754,90.13406467437744,1,4.275218725204468,None,,,,,,,,,,,,,,,,,,3,4,2025-02-11_15h00.05.893,comp,2024.2.5,None,2025-02-11 15h00.16.268953 -0500,
3,3,0,catch,None,None,None,None,None,None,None,None,None,None,3,1.8754546642303467,None,,,,,0,0,0,0,0,3,3,127,90.1510591506958,,,,,,,,,,,,,,,,,,,,,,,,,,,,,,,,,,,,,,,,,,,,,,,,,,,,,,,,,,,,,,,,,,,,,,,,,,,,,,,,,60,130,131,59,178,147,2.2,2.22,-190,269,0,-268,199,-252,90.13625979423523,90.13636255264282,90.14025282859802,90.1510591506958,90.29652953147888,90.29652953147888,90.29652953147888,90.29652953147888,90.29652953147888,90.29652953147888,90.29652953147888,92.03278923034668,3,1.8754546642303467,None,,,,,,,,,,,,,,,,,,3,4,2025-02-11_15h00.05.893,comp,2024.2.5,None,2025-02-11 15h00.16.268953 -0500,
4,4,0,critical,hwd,45.0,4.0,upper,200.0,125.0,125.0,200.0,117.0,117.0,2,3.7688801288604736,None,,,,,0,0,0,0,0,4,4,101,92.0496015548706,,,,,,,,,,,,,,,,,,,,,,,,,,,,,,,,,,,,,,,,,,,,,,,,,,,,,,,,,,,,,,,,,,,,,,,,,,,,,,,,,200.0,125.0,125.0,200.0,117.0,117.0,4.0,4.1,-258,-261,0,-7,254,-256,92.03451728820801,92.03463053703308,92.03816413879395,92.0496015548706,92.20232152938843,92.20232152938843,92.20232152938843,92.20232152938843,92.20232152938843,92.20232152938843,92.20232152938843,95.82309412956238,2,3.7688801288604736,None,,,,,,,,,,,,,,,,,,3,4,2025-02-11_15h00.05.893,comp,2024.2.5,None,2025-02-11 15h00.16.268953 -0500,
5,5,0,filler_random,None,None,None,None,None,None,None,None,None,None,1,2.355530261993408,None,,,,,0,0,0,0,0,5,5,161,95.83859753608704,,,,,,,,,,,,,,,,,,,,,,,,,,,,,,,,,,,,,,,,,,,,,,,,,,,,,,,,,,,,,,,,,,,,,,,,,,,,,,,,,116.39516963845287,134.24941005377184,102.69928957797322,59.24138477348176,193.4513777335312,68.10920152143503,2.1,2.11,-193,262,0,266,160,-253,95.82481145858765,95.82488632202148,95.82775712013245,95.83859753608704,95.98054218292236,95.98054218292236,95.98054218292236,95.98054218292236,95.98054218292236,95.98054218292236,95.98054218292236,98.20216608047485,1,2.355530261993408,None,,,,,,,,,,,,,,,,,,3,4,2025-02-11_15h00.05.893,comp,2024.2.5,None,2025-02-11 15h00.16.268953 -0500,
6,6,0,critical,hdw,45.0,1.0,upper,200.0,125.0,117.0,117.0,125.0,200.0,1,2.2057931423187256,None,,,,,0,0,0,0,0,6,6,109,98.2199456691742,,,,,,,,,,,,,,,,,,,,,,,,,,,,,,,,,,,,,,,,,,,,,,,,,,,,,,,,,,,,,,,,,,,,,,,,,,,,,,,,,200.0,125.0,117.0,117.0,125.0,200.0,1.0,1.3,263,-266,480,-280,734,-256,98.20388555526733,98.20396423339844,98.20711898803711,98.2199456691742,98.36742830276489,98.36742830276489,98.36742830276489,98.36742830276489,98.36742830276489,98.36742830276489,98.36742830276489,100.43939352035522,1,2.2057931423187256,None,,,,,,,,,,,,,,,,,,3,4,2025-02-11_15h00.05.893,comp,2024.2.5,None,2025-02-11 15h00.16.268953 -0500,
7,7,0,critical,dhw,45.0,2.1,upper,117.0,117.0,200.0,125.0,125.0,200.0,3,2.219228744506836,None,,,,,0,0,0,0,0,7,7,25,100.45455265045166,,,,,,,,,,,,,,,,,,,,,,,,,,,,,,,,,,,,,,,,,,,,,,,,,,,,,,,,,,,,,,,,,,,,,,,,,,,,,,,,,117.0,117.0,200.0,125.0,125.0,200.0,2.1,2.12,-217,-271,0,-250,258,282,100.44089365005493,100.44097018241882,100.44382309913635,100.45455265045166,100.60091042518616,100.60091042518616,100.60091042518616,100.60091042518616,100.60091042518616,100.60091042518616,100.60091042518616,102.68302083015442,3,2.219228744506836,None,,,,,,,,,,,,,,,,,,3,4,2025-02-11_15h00.05.893,comp,2024.2.5,None,2025-02-11 15h00.16.268953 -0500,
8,8,0,critical,whd,45.0,2.1,lower,57.0,133.0,133.0,57.0,65.0,65.0,2,5.198653936386108,None,,,,,0,0,0,0,0,8,8,12,102.69999814033508,,,,,,,,,,,,,,,,,,,,,,,,,,,,,,,,,,,,,,,,,,,,,,,,,,,,,,,,,,,,,,,,,,,,,,,,,,,,,,,,,57.0,133.0,133.0,57.0,65.0,65.0,2.1,2.12,-191,-282,0,-278,157,276,102.68509149551392,102.68516945838928,102.68840432167053,102.69999814033508,102.84892845153809,102.84892845153809,102.84892845153809,102.84892845153809,102.84892845153809,102.84892845153809,102.84892845153809,107.90569949150085,2,5.198653936386108,None,,,,,,,,,,,,,,,,,,3,4,2025-02-11_15h00.05.893,comp,2024.2.5,None,2025-02-11 15h00.16.268953 -0500,
9,9,0,filler_random,None,None,None,None,None,None,None,None,None,None,3,1.8956060409545898,None,,,,,0,0,0,0,0,9,9,169,107.92260670661926,,,,,,,,,,,,,,,,,,,,,,,,,,,,,,,,,,,,,,,,,,,,,,,,,,,,,,,,,,,,,,,,,,,,,,,,,,,,,,,,,145.5718114473152,74.02353362573659,82.98472534979174,82.09506830879272,149.00288807117136,137.8605712070711,2.1,2.12,-174,-266,0,-252,206,267,107.90773320198059,107.90781450271606,107.9116861820221,107.92260670661926,108.07093238830566,108.07093238830566,108.07093238830566,108.07093238830566,108.07093238830566,108.07093238830566,108.07093238830566,109.83652186393738,3,1.8956060409545898,None,,,,,,,,,,,,,,,,,,3,4,2025-02-11_15h00.05.893,comp,2024.2.5,None,2025-02-11 15h00.16.268953 -0500,
10,10,0,filler_square,None,None,None,None,None,None,None,None,None,None,3,1.027101755142212,None,,,,,0,0,0,0,0,10,10,174,109.85523438453674,,,,,,,,,,,,,,,,,,,,,,,,,,,,,,,,,,,,,,,,,,,,,,,,,,,,,,,,,,,,,,,,,,,,,,,,,,,,,,,,,70.68270584239792,87.92042106608288,79.12661010191687,136.9920869322985,175.09905643679025,175.09905643679025,3.0,3.2,-208,-257,0,-18,252,253,109.83856773376465,109.83864855766296,109.8418698310852,109.85523438453674,109.99145150184631,109.99145150184631,109.99145150184631,109.99145150184631,109.99145150184631,109.99145150184631,109.99145150184631,110.8899405002594,3,1.027101755142212,None,,,,,,,,,,,,,,,,,,3,4,2025-02-11_15h00.05.893,comp,2024.2.5,None,2025-02-11 15h00.16.268953 -0500,
11,11,0,critical,dwh,60.0,1.0,upper,100.0,100.0,125.0,200.0,200.0,125.0,2,1.9815351963043213,None,,,,,0,0,0,0,0,11,11,67,110.90845370292664,,,,,,,,,,,,,,,,,,,,,,,,,,,,,,,,,,,,,,,,,,,,,,,,,,,,,,,,,,,,,,,,,,,,,,,,,,,,,,,,,100.0,100.0,125.0,200.0,200.0,125.0,1.0,1.1,-726,266,-480,273,-222,266,110.89156746864319,110.89164614677429,110.8950309753418,110.90845370292664,111.05431771278381,111.05431771278381,111.05431771278381,111.05431771278381,111.05431771278381,111.05431771278381,111.05431771278381,112.90494418144226,2,1.9815351963043213,None,,,,,,,,,,,,,,,,,,3,4,2025-02-11_15h00.05.893,comp,2024.2.5,None,2025-02-11 15h00.16.268953 -0500,
12,12,0,critical,hdw,45.0,4.0,lower,133.0,57.0,65.0,65.0,57.0,133.0,1,4.001029968261719,None,,,,,0,0,0,0,0,12,12,112,112.92085886001587,,,,,,,,,,,,,,,,,,,,,,,,,,,,,,,,,,,,,,,,,,,,,,,,,,,,,,,,,,,,,,,,,,,,,,,,,,,,,,,,,133.0,57.0,65.0,65.0,57.0,133.0,4.0,4.1,-157,-290,0,14,195,-282,112.90644383430481,112.90653705596924,112.91052484512329,112.92085886001587,113.07221007347107,113.07221007347107,113.07221007347107,113.07221007347107,113.07221007347107,113.07221007347107,113.07221007347107,116.93851566314697,1,4.001029968261719,None,,,,,,,,,,,,,,,,,,3,4,2025-02-11_15h00.05.893,comp,2024.2.5,None,2025-02-11 15h00.16.268953 -0500,
13,13,0,critical,hwd,45.0,2.1,lower,133.0,57.0,57.0,133.0,65.0,65.0,2,3.0412261486053467,None,,,,,0,0,0,0,0,13,13,40,116.95285034179688,,,,,,,,,,,,,,,,,,,,,,,,,,,,,,,,,,,,,,,,,,,,,,,,,,,,,,,,,,,,,,,,,,,,,,,,,,,,,,,,,133.0,57.0,57.0,133.0,65.0,65.0,2.1,2.12,-191,-266,0,-270,195,282,116.93899059295654,116.93901014328003,116.9399209022522,116.95285034179688,117.11146640777588,117.11146640777588,117.11146640777588,117.11146640777588,117.11146640777588,117.11146640777588,117.11146640777588,120.00927114486694,2,3.0412261486053467,None,,,,,,,,,,,,,,,,,,3,4,2025-02-11_15h00.05.893,comp,2024.2.5,None,2025-02-11 15h00.16.268953 -0500,
14,14,0,critical,wdh,60.0,2.1,lower,57.0,133.0,55.0,55.0,133.0,57.0,1,2.017143726348877,None,,,,,0,0,0,0,0,14,14,10,120.02500891685486,,,,,,,,,,,,,,,,,,,,,,,,,,,,,,,,,,,,,,,,,,,,,,,,,,,,,,,,,,,,,,,,,,,,,,,,,,,,,,,,,57.0,133.0,55.0,55.0,133.0,57.0,2.1,2.11,-190,252,0,269,152,-274,120.01098871231079,120.01107025146484,120.01464772224426,120.02500891685486,120.17344784736633,120.17344784736633,120.17344784736633,120.17344784736633,120.17344784736633,120.17344784736633,120.17344784736633,122.04423022270203,1,2.017143726348877,None,,,,,,,,,,,,,,,,,,3,4,2025-02-11_15h00.05.893,comp,2024.2.5,None,2025-02-11 15h00.16.268953 -0500,
15,15,0,critical,hdw,45.0,2.1,upper,200.0,125.0,117.0,117.0,125.0,200.0,1,2.8736321926116943,None,,,,,0,0,0,0,0,15,15,45,122.06461453437805,,,,,,,,,,,,,,,,,,,,,,,,,,,,,,,,,,,,,,,,,,,,,,,,,,,,,,,,,,,,,,,,,,,,,,,,,,,,,,,,,200.0,125.0,117.0,117.0,125.0,200.0,2.1,2.12,-217,-289,0,-251,254,255,122.04636001586914,122.04645586013794,122.04939651489258,122.06461453437805,122.20949196815491,122.20949196815491,122.20949196815491,122.20949196815491,122.20949196815491,122.20949196815491,122.20949196815491,124.94841408729553,1,2.8736321926116943,None,,,,,,,,,,,,,,,,,,3,4,2025-02-11_15h00.05.893,comp,2024.2.5,None,2025-02-11 15h00.16.268953 -0500,
16,16,0,filler_random,None,None,None,None,None,None,None,None,None,None,3,7.261749029159546,None,,,,,0,0,0,0,0,16,16,144,124.964834690094,,,,,,,,,,,,,,,,,,,,,,,,,,,,,,,,,,,,,,,,,,,,,,,,,,,,,,,,,,,,,,,,,,,,,,,,,,,,,,,,,159.0560518096839,88.80659766746605,104.13851330380402,140.63572746861786,144.09253803092227,89.47815046794881,2.2,2.22,-211,263,0,-259,211,-254,124.95022773742676,124.95030736923218,124.95322513580322,124.964834690094,125.1151671409607,125.1151671409607,125.1151671409607,125.1151671409607,125.1151671409607,125.1151671409607,125.1151671409607,132.23494148254395,3,7.261749029159546,None,,,,,,,,,,,,,,,,,,3,4,2025-02-11_15h00.05.893,comp,2024.2.5,None,2025-02-11 15h00.16.268953 -0500,
17,17,0,critical,whd,60.0,1.0,lower,57.0,133.0,133.0,57.0,55.0,55.0,1,3.3741297721862793,None,,,,,0,0,0,0,0,17,17,90,132.2524712085724,,,,,,,,,,,,,,,,,,,,,,,,,,,,,,,,,,,,,,,,,,,,,,,,,,,,,,,,,,,,,,,,,,,,,,,,,,,,,,,,,57.0,133.0,133.0,57.0,55.0,55.0,1.0,1.3,289,-281,480,-262,632,-266,132.23646879196167,132.23654580116272,132.23938274383545,132.2524712085724,132.3951289653778,132.3951289653778,132.3951289653778,132.3951289653778,132.3951289653778,132.3951289653778,132.3951289653778,135.6333930492401,1,3.3741297721862793,None,,,,,,,,,,,,,,,,,,3,4,2025-02-11_15h00.05.893,comp,2024.2.5,None,2025-02-11 15h00.16.268953 -0500,
18,18,0,critical,hwd,60.0,4.0,upper,200.0,125.0,125.0,200.0,100.0,100.0,1,1.9167993068695068,None,,,,,0,0,0,0,0,18,18,107,135.6542146205902,,,,,,,,,,,,,,,,,,,,,,,,,,,,,,,,,,,,,,,,,,,,,,,,,,,,,,,,,,,,,,,,,,,,,,,,,,,,,,,,,200.0,125.0,125.0,200.0,100.0,100.0,4.0,4.2,-258,-4,0,-288,246,3,135.6354455947876,135.63552522659302,135.6384825706482,135.6542146205902,135.79165768623352,135.79165768623352,135.79165768623352,135.79165768623352,135.79165768623352,135.79165768623352,135.79165768623352,137.57969212532043,1,1.9167993068695068,None,,,,,,,,,,,,,,,,,,3,4,2025-02-11_15h00.05.893,comp,2024.2.5,None,2025-02-11 15h00.16.268953 -0500,
19,19,0,filler_square,None,None,None,None,None,None,None,None,None,None,3,1.8865985870361328,None,,,,,0,0,0,0,0,19,19,193,137.595867395401,,,,,,,,,,,,,,,,,,,,,,,,,,,,,,,,,,,,,,,,,,,,,,,,,,,,,,,,,,,,,,,,,,,,,,,,,,,,,,,,,105.19953514689982,116.26447161371289,179.42795922214015,130.5642323764591,194.18168819408876,194.18168819408876,2.1,2.11,-219,289,0,289,258,-284,137.58160138130188,137.5816810131073,137.58510279655457,137.595867395401,137.74304032325745,137.74304032325745,137.74304032325745,137.74304032325745,137.74304032325745,137.74304032325745,137.74304032325745,139.49621653556824,3,1.8865985870361328,None,,,,,,,,,,,,,,,,,,3,4,2025-02-11_15h00.05.893,comp,2024.2.5,None,2025-02-11 15h00.16.268953 -0500,
20,20,0,catch,None,None,None,None,None,None,None,None,None,None,3,1.0650460720062256,None,,,,,0,0,0,0,0,20,20,121,139.51302552223206,,,,,,,,,,,,,,,,,,,,,,,,,,,,,,,,,,,,,,,,,,,,,,,,,,,,,,,,,,,,,,,,,,,,,,,,,,,,,,,,,97,93,76,114,152,173,3.0,3.2,-200,-261,0,2,240,269,139.49831771850586,139.49842977523804,139.5017547607422,139.51302552223206,139.66213488578796,139.66213488578796,139.66213488578796,139.66213488578796,139.66213488578796,139.66213488578796,139.66213488578796,140.59212064743042,3,1.0650460720062256,None,,,,,,,,,,,,,,,,,,3,4,2025-02-11_15h00.05.893,comp,2024.2.5,None,2025-02-11 15h00.16.268953 -0500,
21,21,0,critical,dwh,45.0,2.1,upper,117.0,117.0,125.0,200.0,200.0,125.0,2,1.9525156021118164,None,,,,,0,0,0,0,0,21,21,5,140.60982179641724,,,,,,,,,,,,,,,,,,,,,,,,,,,,,,,,,,,,,,,,,,,,,,,,,,,,,,,,,,,,,,,,,,,,,,,,,,,,,,,,,117.0,117.0,125.0,200.0,200.0,125.0,2.1,2.12,-254,-266,0,-250,258,264,140.59366583824158,140.59374356269836,140.5966944694519,140.60982179641724,140.74703001976013,140.74703001976013,140.74703001976013,140.74703001976013,140.74703001976013,140.74703001976013,140.74703001976013,142.56456232070923,2,1.9525156021118164,None,,,,,,,,,,,,,,,,,,3,4,2025-02-11_15h00.05.893,comp,2024.2.5,None,2025-02-11 15h00.16.268953 -0500,
22,22,0,critical,whd,60.0,1.0,upper,125.0,200.0,200.0,125.0,100.0,100.0,1,2.317888021469116,None,,,,,0,0,0,0,0,22,22,91,142.58042192459106,,,,,,,,,,,,,,,,,,,,,,,,,,,,,,,,,,,,,,,,,,,,,,,,,,,,,,,,,,,,,,,,,,,,,,,,,,,,,,,,,125.0,200.0,200.0,125.0,100.0,100.0,1.0,1.2,-258,9,0,-4,208,4,142.56604409217834,142.56612372398376,142.5693290233612,142.58042192459106,142.73243308067322,142.73243308067322,142.73243308067322,142.73243308067322,142.73243308067322,142.73243308067322,142.73243308067322,144.9149854183197,1,2.317888021469116,None,,,,,,,,,,,,,,,,,,3,4,2025-02-11_15h00.05.893,comp,2024.2.5,None,2025-02-11 15h00.16.268953 -0500,
23,23,0,filler_square,None,None,None,None,None,None,None,None,None,None,1,1.2945659160614014,None,,,,,0,0,0,0,0,23,23,195,144.9316132068634,,,,,,,,,,,,,,,,,,,,,,,,,,,,,,,,,,,,,,,,,,,,,,,,,,,,,,,,,,,,,,,,,,,,,,,,,,,,,,,,,171.69762062702262,171.69762062702262,67.25263458629055,138.5541722808362,127.79671794583624,156.86703874433115,2.2,2.22,-251,266,0,-257,244,-289,144.91691875457764,144.91699647903442,144.92045879364014,144.9316132068634,145.08175778388977,145.08175778388977,145.08175778388977,145.08175778388977,145.08175778388977,145.08175778388977,145.08175778388977,146.23687410354614,1,1.2945659160614014,None,,,,,,,,,,,,,,,,,,3,4,2025-02-11_15h00.05.893,comp,2024.2.5,None,2025-02-11 15h00.16.268953 -0500,
24,24,0,critical,dhw,60.0,3.0,upper,100.0,100.0,200.0,125.0,125.0,200.0,3,1.955249547958374,None,,,,,0,0,0,0,0,24,24,57,146.25496768951416,,,,,,,,,,,,,,,,,,,,,,,,,,,,,,,,,,,,,,,,,,,,,,,,,,,,,,,,,,,,,,,,,,,,,,,,,,,,,,,,,100.0,100.0,200.0,125.0,125.0,200.0,3.0,3.1,-208,268,0,-6,258,-282,146.23856735229492,146.23864364624023,146.24189853668213,146.25496768951416,146.39939284324646,146.39939284324646,146.39939284324646,146.39939284324646,146.39939284324646,146.39939284324646,146.39939284324646,148.22591638565063,3,1.955249547958374,None,,,,,,,,,,,,,,,,,,3,4,2025-02-11_15h00.05.893,comp,2024.2.5,None,2025-02-11 15h00.16.268953 -0500,
25,25,0,critical,dwh,60.0,4.0,upper,100.0,100.0,125.0,200.0,200.0,125.0,2,1.6076579093933105,None,,,,,0,0,0,0,0,25,25,71,148.242511510849,,,,,,,,,,,,,,,,,,,,,,,,,,,,,,,,,,,,,,,,,,,,,,,,,,,,,,,,,,,,,,,,,,,,,,,,,,,,,,,,,100.0,100.0,125.0,200.0,200.0,125.0,4.0,4.2,-246,4,0,-267,258,-13,148.22768259048462,148.2277956008911,148.23110914230347,148.242511510849,148.3821017742157,148.3821017742157,148.3821017742157,148.3821017742157,148.3821017742157,148.3821017742157,148.3821017742157,149.85240387916565,2,1.6076579093933105,None,,,,,,,,,,,,,,,,,,3,4,2025-02-11_15h00.05.893,comp,2024.2.5,None,2025-02-11 15h00.16.268953 -0500,
26,26,0,filler_square,None,None,None,None,None,None,None,None,None,None,1,2.0776772499084473,None,,,,,0,0,0,0,0,26,26,196,149.86920547485352,,,,,,,,,,,,,,,,,,,,,,,,,,,,,,,,,,,,,,,,,,,,,,,,,,,,,,,,,,,,,,,,,,,,,,,,,,,,,,,,,121.0240018449942,121.0240018449942,88.87949131554033,84.66225042642562,69.62962179995151,98.19770551926055,2.1,2.11,-199,251,0,275,187,-258,149.8546483516693,149.8547327518463,149.85826635360718,149.86920547485352,150.02219653129578,150.02219653129578,150.02219653129578,150.02219653129578,150.02219653129578,150.02219653129578,150.02219653129578,151.95703721046448,1,2.0776772499084473,None,,,,,,,,,,,,,,,,,,3,4,2025-02-11_15h00.05.893,comp,2024.2.5,None,2025-02-11 15h00.16.268953 -0500,
27,27,0,filler_square,None,None,None,None,None,None,None,None,None,None,3,1.7627334594726562,None,,,,,0,0,0,0,0,27,27,186,151.97556042671204,,,,,,,,,,,,,,,,,,,,,,,,,,,,,,,,,,,,,,,,,,,,,,,,,,,,,,,,,,,,,,,,,,,,,,,,,,,,,,,,,83.13188918015567,97.7300250661477,104.3813663806248,105.40799224785198,168.77073202658573,168.77073202658573,2.2,2.21,-198,-277,0,270,233,259,151.95899271965027,151.9591200351715,151.96228575706482,151.97556042671204,152.11693382263184,152.11693382263184,152.11693382263184,152.11693382263184,152.11693382263184,152.11693382263184,152.11693382263184,153.7556164264679,3,1.7627334594726562,None,,,,,,,,,,,,,,,,,,3,4,2025-02-11_15h00.05.893,comp,2024.2.5,None,2025-02-11 15h00.16.268953 -0500,
28,28,0,critical,dhw,45.0,4.0,upper,117.0,117.0,200.0,125.0,125.0,200.0,3,2.2788195610046387,None,,,,,0,0,0,0,0,28,28,53,153.77142310142517,,,,,,,,,,,,,,,,,,,,,,,,,,,,,,,,,,,,,,,,,,,,,,,,,,,,,,,,,,,,,,,,,,,,,,,,,,,,,,,,,117.0,117.0,200.0,125.0,125.0,200.0,4.0,4.2,-217,-5,0,-276,258,5,153.7572684288025,153.75738739967346,153.76095747947693,153.77142310142517,153.91847777366638,153.91847777366638,153.91847777366638,153.91847777366638,153.91847777366638,153.91847777366638,153.91847777366638,156.05224752426147,3,2.2788195610046387,None,,,,,,,,,,,,,,,,,,3,4,2025-02-11_15h00.05.893,comp,2024.2.5,None,2025-02-11 15h00.16.268953 -0500,
29,29,0,critical,hwd,60.0,1.0,lower,133.0,57.0,57.0,133.0,55.0,55.0,2,2.221235513687134,None,,,,,0,0,0,0,0,29,29,102,156.06920337677002,,,,,,,,,,,,,,,,,,,,,,,,,,,,,,,,,,,,,,,,,,,,,,,,,,,,,,,,,,,,,,,,,,,,,,,,,,,,,,,,,133.0,57.0,57.0,133.0,55.0,55.0,1.0,1.3,289,-257,480,-276,670,-289,156.05398035049438,156.0541126728058,156.05826950073242,156.06920337677002,156.2171449661255,156.2171449661255,156.2171449661255,156.2171449661255,156.2171449661255,156.2171449661255,156.2171449661255,158.30447840690613,2,2.221235513687134,None,,,,,,,,,,,,,,,,,,3,4,2025-02-11_15h00.05.893,comp,2024.2.5,None,2025-02-11 15h00.16.268953 -0500,
30,30,0,critical,dwh,45.0,2.1,lower,65.0,65.0,57.0,133.0,133.0,57.0,3,1.4274687767028809,None,,,,,0,0,0,0,0,30,30,28,158.31994700431824,,,,,,,,,,,,,,,,,,,,,,,,,,,,,,,,,,,,,,,,,,,,,,,,,,,,,,,,,,,,,,,,,,,,,,,,,,,,,,,,,65.0,65.0,57.0,133.0,133.0,57.0,2.1,2.11,-195,280,0,273,191,-267,158.30612301826477,158.3061990737915,158.3093922138214,158.31994700431824,158.46984219551086,158.46984219551086,158.46984219551086,158.46984219551086,158.46984219551086,158.46984219551086,158.46984219551086,159.75223302841187,3,1.4274687767028809,None,,,,,,,,,,,,,,,,,,3,4,2025-02-11_15h00.05.893,comp,2024.2.5,None,2025-02-11 15h00.16.268953 -0500,
31,31,0,catch,None,None,None,None,None,None,None,None,None,None,1,1.5696790218353271,None,,,,,0,0,0,0,0,31,31,120,159.76873254776,,,,,,,,,,,,,,,,,,,,,,,,,,,,,,,,,,,,,,,,,,,,,,,,,,,,,,,,,,,,,,,,,,,,,,,,,,,,,,,,,193,132,122,68,90,100,1.0,1.1,-676,257,-480,276,-300,275,159.75409579277039,159.75417280197144,159.75721907615662,159.76873254776,159.92440676689148,159.92440676689148,159.92440676689148,159.92440676689148,159.92440676689148,159.92440676689148,159.92440676689148,161.35351037979126,1,1.5696790218353271,None,,,,,,,,,,,,,,,,,,3,4,2025-02-11_15h00.05.893,comp,2024.2.5,None,2025-02-11 15h00.16.268953 -0500,
32,32,0,critical,hdw,60.0,2.1,lower,133.0,57.0,55.0,55.0,57.0,133.0,3,2.563662052154541,None,,,,,0,0,0,0,0,32,32,46,161.36946082115173,,,,,,,,,,,,,,,,,,,,,,,,,,,,,,,,,,,,,,,,,,,,,,,,,,,,,,,,,,,,,,,,,,,,,,,,,,,,,,,,,133.0,57.0,55.0,55.0,57.0,133.0,2.1,2.11,-152,256,0,272,190,-265,161.3551630973816,161.35527062416077,161.35889148712158,161.36946082115173,161.51905965805054,161.51905965805054,161.51905965805054,161.51905965805054,161.51905965805054,161.51905965805054,161.51905965805054,163.9355480670929,3,2.563662052154541,None,,,,,,,,,,,,,,,,,,3,4,2025-02-11_15h00.05.893,comp,2024.2.5,None,2025-02-11 15h00.16.268953 -0500,
33,33,0,critical,wdh,45.0,1.0,lower,57.0,133.0,65.0,65.0,133.0,57.0,1,2.2195117473602295,None,,,,,0,0,0,0,0,33,33,72,163.95092701911926,,,,,,,,,,,,,,,,,,,,,,,,,,,,,,,,,,,,,,,,,,,,,,,,,,,,,,,,,,,,,,,,,,,,,,,,,,,,,,,,,57.0,133.0,65.0,65.0,133.0,57.0,1.0,1.3,285,-255,480,-271,637,-284,163.93604445457458,163.93606448173523,163.93686175346375,163.95092701911926,164.09486365318298,164.09486365318298,164.09486365318298,164.09486365318298,164.09486365318298,164.09486365318298,164.09486365318298,166.17985010147095,1,2.2195117473602295,None,,,,,,,,,,,,,,,,,,3,4,2025-02-11_15h00.05.893,comp,2024.2.5,None,2025-02-11 15h00.16.268953 -0500,
34,34,0,critical,wdh,60.0,1.0,lower,57.0,133.0,55.0,55.0,133.0,57.0,1,1.294508695602417,None,,,,,0,0,0,0,0,34,34,78,166.19643664360046,,,,,,,,,,,,,,,,,,,,,,,,,,,,,,,,,,,,,,,,,,,,,,,,,,,,,,,,,,,,,,,,,,,,,,,,,,,,,,,,,57.0,133.0,55.0,55.0,133.0,57.0,1.0,1.2,-190,7,0,-9,152,-12,166.18149280548096,166.18158388137817,166.18483328819275,166.19643664360046,166.34117889404297,166.34117889404297,166.34117889404297,166.34117889404297,166.34117889404297,166.34117889404297,166.34117889404297,167.50032091140747,1,1.294508695602417,None,,,,,,,,,,,,,,,,,,3,4,2025-02-11_15h00.05.893,comp,2024.2.5,None,2025-02-11 15h00.16.268953 -0500,
35,35,0,filler_random,None,None,None,None,None,None,None,None,None,None,1,1.7505862712860107,None,,,,,0,0,0,0,0,35,35,139,167.51645398139954,,,,,,,,,,,,,,,,,,,,,,,,,,,,,,,,,,,,,,,,,,,,,,,,,,,,,,,,,,,,,,,,,,,,,,,,,,,,,,,,,140.40764406999182,153.05791985663026,60.53374624949201,99.99776855156904,142.44386697438983,129.097441390867,4.0,4.2,-223,2,0,-279,211,17,167.50198674201965,167.5020730495453,167.50527620315552,167.51645398139954,167.65808486938477,167.65808486938477,167.65808486938477,167.65808486938477,167.65808486938477,167.65808486938477,167.65808486938477,169.27401852607727,1,1.7505862712860107,None,,,,,,,,,,,,,,,,,,3,4,2025-02-11_15h00.05.893,comp,2024.2.5,None,2025-02-11 15h00.16.268953 -0500,
36,36,0,critical,wdh,60.0,4.0,upper,125.0,200.0,100.0,100.0,200.0,125.0,1,1.5765442848205566,None,,,,,0,0,0,0,0,36,36,83,169.29048895835876,,,,,,,,,,,,,,,,,,,,,,,,,,,,,,,,,,,,,,,,,,,,,,,,,,,,,,,,,,,,,,,,,,,,,,,,,,,,,,,,,125.0,200.0,100.0,100.0,200.0,125.0,4.0,4.1,-246,-282,0,7,208,-271,169.2756028175354,169.27568125724792,169.27970242500305,169.29048895835876,169.4374475479126,169.4374475479126,169.4374475479126,169.4374475479126,169.4374475479126,169.4374475479126,169.4374475479126,170.87379002571106,1,1.5765442848205566,None,,,,,,,,,,,,,,,,,,3,4,2025-02-11_15h00.05.893,comp,2024.2.5,None,2025-02-11 15h00.16.268953 -0500,
37,37,0,filler_random,None,None,None,None,None,None,None,None,None,None,3,3.545839309692383,None,,,,,0,0,0,0,0,37,37,140,170.88957166671753,,,,,,,,,,,,,,,,,,,,,,,,,,,,,,,,,,,,,,,,,,,,,,,,,,,,,,,,,,,,,,,,,,,,,,,,,,,,,,,,,168.88602792286886,107.55472351104007,138.75567666965281,65.79651809573318,165.48912285408974,108.29820783001469,4.0,4.1,-183,-265,0,18,183,-266,170.87551760673523,170.87559843063354,170.87891745567322,170.88957166671753,171.04077887535095,171.04077887535095,171.04077887535095,171.04077887535095,171.04077887535095,171.04077887535095,171.04077887535095,174.44196557998657,3,3.545839309692383,None,,,,,,,,,,,,,,,,,,3,4,2025-02-11_15h00.05.893,comp,2024.2.5,None,2025-02-11 15h00.16.268953 -0500,
38,38,0,filler_square,None,None,None,None,None,None,None,None,None,None,3,3.104419708251953,None,,,,,0,0,0,0,0,38,38,175,174.45810866355896,,,,,,,,,,,,,,,,,,,,,,,,,,,,,,,,,,,,,,,,,,,,,,,,,,,,,,,,,,,,,,,,,,,,,,,,,,,,,,,,,87.0749022288718,148.01222679714982,101.85119085785074,99.59131545431421,185.2730119429411,185.2730119429411,4.0,4.2,-220,2,0,-289,238,-18,174.44380497932434,174.4438819885254,174.4472634792328,174.45810866355896,174.61140942573547,174.61140942573547,174.61140942573547,174.61140942573547,174.61140942573547,174.61140942573547,174.61140942573547,177.57736992835999,3,3.104419708251953,None,,,,,,,,,,,,,,,,,,3,4,2025-02-11_15h00.05.893,comp,2024.2.5,None,2025-02-11 15h00.16.268953 -0500,
39,39,0,filler_square,None,None,None,None,None,None,None,None,None,None,3,1.5687298774719238,None,,,,,0,0,0,0,0,39,39,181,177.59390950202942,,,,,,,,,,,,,,,,,,,,,,,,,,,,,,,,,,,,,,,,,,,,,,,,,,,,,,,,,,,,,,,,,,,,,,,,,,,,,,,,,81.39507766998133,149.7109474074094,64.84867555056698,181.06103205328245,195.9064842715043,195.9064842715043,2.1,2.12,-261,-250,0,-285,284,287,177.5794517993927,177.57952904701233,177.58289217948914,177.59390950202942,177.732825756073,177.732825756073,177.732825756073,177.732825756073,177.732825756073,177.732825756073,177.732825756073,179.17829847335815,3,1.5687298774719238,None,,,,,,,,,,,,,,,,,,3,4,2025-02-11_15h00.05.893,comp,2024.2.5,None,2025-02-11 15h00.16.268953 -0500,
40,40,0,critical,whd,45.0,2.1,upper,125.0,200.0,200.0,125.0,117.0,117.0,1,1.8805906772613525,None,,,,,0,0,0,0,0,40,40,37,179.19413208961487,,,,,,,,,,,,,,,,,,,,,,,,,,,,,,,,,,,,,,,,,,,,,,,,,,,,,,,,,,,,,,,,,,,,,,,,,,,,,,,,,125.0,200.0,200.0,125.0,117.0,117.0,2.1,2.12,-258,-277,0,-283,217,282,179.18013334274292,179.18026733398438,179.1836655139923,179.19413208961487,179.34405159950256,179.34405159950256,179.34405159950256,179.34405159950256,179.34405159950256,179.34405159950256,179.34405159950256,181.07721638679504,1,1.8805906772613525,None,,,,,,,,,,,,,,,,,,3,4,2025-02-11_15h00.05.893,comp,2024.2.5,None,2025-02-11 15h00.16.268953 -0500,
41,41,0,critical,hdw,45.0,3.0,lower,133.0,57.0,65.0,65.0,57.0,133.0,3,2.257847785949707,None,,,,,0,0,0,0,0,41,41,110,181.09719824790955,,,,,,,,,,,,,,,,,,,,,,,,,,,,,,,,,,,,,,,,,,,,,,,,,,,,,,,,,,,,,,,,,,,,,,,,,,,,,,,,,133.0,57.0,65.0,65.0,57.0,133.0,3.0,3.1,-157,257,0,-17,195,-275,181.07876348495483,181.0788426399231,181.08213067054749,181.09719824790955,181.2446072101593,181.2446072101593,181.2446072101593,181.2446072101593,181.2446072101593,181.2446072101593,181.2446072101593,183.3638436794281,3,2.257847785949707,None,,,,,,,,,,,,,,,,,,3,4,2025-02-11_15h00.05.893,comp,2024.2.5,None,2025-02-11 15h00.16.268953 -0500,
42,42,0,filler_square,None,None,None,None,None,None,None,None,None,None,3,1.519411563873291,None,,,,,0,0,0,0,0,42,42,199,183.38191318511963,,,,,,,,,,,,,,,,,,,,,,,,,,,,,,,,,,,,,,,,,,,,,,,,,,,,,,,,,,,,,,,,,,,,,,,,,,,,,,,,,135.41127157267087,74.9039435302879,84.98808532324308,61.92936772814633,148.7824942163945,148.7824942163945,2.1,2.11,-164,261,0,254,201,-277,183.36572980880737,183.36580801010132,183.3687789440155,183.38191318511963,183.52677702903748,183.52677702903748,183.52677702903748,183.52677702903748,183.52677702903748,183.52677702903748,183.52677702903748,184.9117305278778,3,1.519411563873291,None,,,,,,,,,,,,,,,,,,3,4,2025-02-11_15h00.05.893,comp,2024.2.5,None,2025-02-11 15h00.16.268953 -0500,
43,43,0,critical,dwh,45.0,3.0,lower,65.0,65.0,57.0,133.0,133.0,57.0,3,1.876326560974121,None,,,,,0,0,0,0,0,43,43,62,184.92624735832214,,,,,,,,,,,,,,,,,,,,,,,,,,,,,,,,,,,,,,,,,,,,,,,,,,,,,,,,,,,,,,,,,,,,,,,,,,,,,,,,,65.0,65.0,57.0,133.0,133.0,57.0,3.0,3.1,-195,251,0,10,191,-280,184.9132878780365,184.91339349746704,184.91663789749146,184.92624735832214,185.08042764663696,185.08042764663696,185.08042764663696,185.08042764663696,185.08042764663696,185.08042764663696,185.08042764663696,186.81679487228394,3,1.876326560974121,None,,,,,,,,,,,,,,,,,,3,4,2025-02-11_15h00.05.893,comp,2024.2.5,None,2025-02-11 15h00.16.268953 -0500,
44,44,0,critical,hwd,60.0,2.1,lower,133.0,57.0,57.0,133.0,55.0,55.0,2,1.4981250762939453,None,,,,,0,0,0,0,0,44,44,42,186.83247017860413,,,,,,,,,,,,,,,,,,,,,,,,,,,,,,,,,,,,,,,,,,,,,,,,,,,,,,,,,,,,,,,,,,,,,,,,,,,,,,,,,133.0,57.0,57.0,133.0,55.0,55.0,2.1,2.11,-191,255,0,269,190,-256,186.81839847564697,186.8184781074524,186.82136034965515,186.83247017860413,186.97830057144165,186.97830057144165,186.97830057144165,186.97830057144165,186.97830057144165,186.97830057144165,186.97830057144165,188.34403777122498,2,1.4981250762939453,None,,,,,,,,,,,,,,,,,,3,4,2025-02-11_15h00.05.893,comp,2024.2.5,None,2025-02-11 15h00.16.268953 -0500,
45,45,0,critical,whd,45.0,3.0,upper,125.0,200.0,200.0,125.0,117.0,117.0,1,1.3233137130737305,None,,,,,0,0,0,0,0,45,45,87,188.35975241661072,,,,,,,,,,,,,,,,,,,,,,,,,,,,,,,,,,,,,,,,,,,,,,,,,,,,,,,,,,,,,,,,,,,,,,,,,,,,,,,,,125.0,200.0,200.0,125.0,117.0,117.0,3.0,3.1,-258,285,0,-10,217,-259,188.34555649757385,188.34563326835632,188.348539352417,188.35975241661072,188.49694991111755,188.49694991111755,188.49694991111755,188.49694991111755,188.49694991111755,188.49694991111755,188.49694991111755,189.69739603996277,1,1.3233137130737305,None,,,,,,,,,,,,,,,,,,3,4,2025-02-11_15h00.05.893,comp,2024.2.5,None,2025-02-11 15h00.16.268953 -0500,
46,46,0,critical,wdh,45.0,2.1,upper,125.0,200.0,117.0,117.0,200.0,125.0,1,2.0022103786468506,None,,,,,0,0,0,0,0,46,46,9,189.7125244140625,,,,,,,,,,,,,,,,,,,,,,,,,,,,,,,,,,,,,,,,,,,,,,,,,,,,,,,,,,,,,,,,,,,,,,,,,,,,,,,,,125.0,200.0,117.0,117.0,200.0,125.0,2.1,2.12,-254,-259,0,-265,217,273,189.6989483833313,189.6990442276001,189.70225191116333,189.7125244140625,189.8614354133606,189.8614354133606,189.8614354133606,189.8614354133606,189.8614354133606,189.8614354133606,189.8614354133606,191.73105192184448,1,2.0022103786468506,None,,,,,,,,,,,,,,,,,,3,4,2025-02-11_15h00.05.893,comp,2024.2.5,None,2025-02-11 15h00.16.268953 -0500,
47,47,0,filler_random,None,None,None,None,None,None,None,None,None,None,2,1.5443000793457031,None,,,,,0,0,0,0,0,47,47,163,191.7463800907135,,,,,,,,,,,,,,,,,,,,,,,,,,,,,,,,,,,,,,,,,,,,,,,,,,,,,,,,,,,,,,,,,,,,,,,,,,,,,,,,,151.49457866838273,164.64375284765254,182.84946866180212,179.24548286513772,172.00948130038353,153.51010808900168,4.0,4.2,-268,11,0,-265,262,3,191.7327663898468,191.73284268379211,191.73612713813782,191.7463800907135,191.89736557006836,191.89736557006836,191.89736557006836,191.89736557006836,191.89736557006836,191.89736557006836,191.89736557006836,193.3041651248932,2,1.5443000793457031,None,,,,,,,,,,,,,,,,,,3,4,2025-02-11_15h00.05.893,comp,2024.2.5,None,2025-02-11 15h00.16.268953 -0500,
48,48,0,critical,wdh,60.0,4.0,lower,57.0,133.0,55.0,55.0,133.0,57.0,1,1.3902766704559326,None,,,,,0,0,0,0,0,48,48,82,193.32439064979553,,,,,,,,,,,,,,,,,,,,,,,,,,,,,,,,,,,,,,,,,,,,,,,,,,,,,,,,,,,,,,,,,,,,,,,,,,,,,,,,,57.0,133.0,55.0,55.0,133.0,57.0,4.0,4.1,-190,-266,0,-5,152,-283,193.30573320388794,193.30581164360046,193.30870652198792,193.32439064979553,193.46478700637817,193.46478700637817,193.46478700637817,193.46478700637817,193.46478700637817,193.46478700637817,193.46478700637817,194.7297248840332,1,1.3902766704559326,None,,,,,,,,,,,,,,,,,,3,4,2025-02-11_15h00.05.893,comp,2024.2.5,None,2025-02-11 15h00.16.268953 -0500,
49,49,0,filler_square,None,None,None,None,None,None,None,None,None,None,2,0.9685244560241699,None,,,,,0,0,0,0,0,49,49,189,194.74616193771362,,,,,,,,,,,,,,,,,,,,,,,,,,,,,,,,,,,,,,,,,,,,,,,,,,,,,,,,,,,,,,,,,,,,,,,,,,,,,,,,,89.9449590125459,86.33165848258903,163.3060829375596,163.3060829375596,58.53414697497926,101.11390021038022,3.0,3.1,-221,263,0,8,228,-259,194.73175573349,194.73183417320251,194.73505783081055,194.74616193771362,194.8944251537323,194.8944251537323,194.8944251537323,194.8944251537323,194.8944251537323,194.8944251537323,194.8944251537323,195.73094749450684,2,0.9685244560241699,None,,,,,,,,,,,,,,,,,,3,4,2025-02-11_15h00.05.893,comp,2024.2.5,None,2025-02-11 15h00.16.268953 -0500,
50,50,0,catch,None,None,None,None,None,None,None,None,None,None,2,1.0037217140197754,None,,,,,0,0,0,0,0,50,50,128,195.7518150806427,,,,,,,,,,,,,,,,,,,,,,,,,,,,,,,,,,,,,,,,,,,,,,,,,,,,,,,,,,,,,,,,,,,,,,,,,,,,,,,,,72,118,139,186,84,106,1.0,1.3,232,-275,480,-286,722,-261,195.73307394981384,195.73315358161926,195.73646473884583,195.7518150806427,195.8985879421234,195.8985879421234,195.8985879421234,195.8985879421234,195.8985879421234,195.8985879421234,195.8985879421234,196.76199388504028,2,1.0037217140197754,None,,,,,,,,,,,,,,,,,,3,4,2025-02-11_15h00.05.893,comp,2024.2.5,None,2025-02-11 15h00.16.268953 -0500,
51,51,0,critical,wdh,60.0,2.1,upper,125.0,200.0,100.0,100.0,200.0,125.0,1,1.327582836151123,None,,,,,0,0,0,0,0,51,51,11,196.77983045578003,,,,,,,,,,,,,,,,,,,,,,,,,,,,,,,,,,,,,,,,,,,,,,,,,,,,,,,,,,,,,,,,,,,,,,,,,,,,,,,,,125.0,200.0,100.0,100.0,200.0,125.0,2.1,2.12,-246,-277,0,-280,208,267,196.76366662979126,196.7637870311737,196.76707911491394,196.77983045578003,196.93370914459229,196.93370914459229,196.93370914459229,196.93370914459229,196.93370914459229,196.93370914459229,196.93370914459229,198.11644887924194,1,1.327582836151123,None,,,,,,,,,,,,,,,,,,3,4,2025-02-11_15h00.05.893,comp,2024.2.5,None,2025-02-11 15h00.16.268953 -0500,
52,52,0,critical,dhw,45.0,4.0,lower,65.0,65.0,133.0,57.0,57.0,133.0,3,2.263240098953247,None,,,,,0,0,0,0,0,52,52,52,198.13217878341675,,,,,,,,,,,,,,,,,,,,,,,,,,,,,,,,,,,,,,,,,,,,,,,,,,,,,,,,,,,,,,,,,,,,,,,,,,,,,,,,,65.0,65.0,133.0,57.0,57.0,133.0,4.0,4.1,-157,-281,0,-1,191,-257,198.11798667907715,198.1180670261383,198.12155532836914,198.13217878341675,198.2831735610962,198.2831735610962,198.2831735610962,198.2831735610962,198.2831735610962,198.2831735610962,198.2831735610962,200.40473651885986,3,2.263240098953247,None,,,,,,,,,,,,,,,,,,3,4,2025-02-11_15h00.05.893,comp,2024.2.5,None,2025-02-11 15h00.16.268953 -0500,
53,53,0,filler_square,None,None,None,None,None,None,None,None,None,None,2,2.7742340564727783,None,,,,,0,0,0,0,0,53,53,173,200.42053270339966,,,,,,,,,,,,,,,,,,,,,,,,,,,,,,,,,,,,,,,,,,,,,,,,,,,,,,,,,,,,,,,,,,,,,,,,,,,,,,,,,71.87414165949018,68.19071010310536,75.05398872025691,75.05398872025691,64.68653644954617,64.6459670765827,2.2,2.21,-168,-255,0,270,166,255,200.40681314468384,200.4068922996521,200.40984296798706,200.42053270339966,200.57154417037964,200.57154417037964,200.57154417037964,200.57154417037964,200.57154417037964,200.57154417037964,200.57154417037964,203.2076976299286,2,2.7742340564727783,None,,,,,,,,,,,,,,,,,,3,4,2025-02-11_15h00.05.893,comp,2024.2.5,None,2025-02-11 15h00.16.268953 -0500,
54,54,0,critical,dhw,60.0,1.0,lower,55.0,55.0,133.0,57.0,57.0,133.0,2,5.208520889282227,None,,,,,0,0,0,0,0,54,54,54,203.226548910141,,,,,,,,,,,,,,,,,,,,,,,,,,,,,,,,,,,,,,,,,,,,,,,,,,,,,,,,,,,,,,,,,,,,,,,,,,,,,,,,,55.0,55.0,133.0,57.0,57.0,133.0,1.0,1.3,328,-266,480,-262,671,-278,203.20920825004578,203.20928740501404,203.21217608451843,203.226548910141,203.36806726455688,203.36806726455688,203.36806726455688,203.36806726455688,203.36806726455688,203.36806726455688,203.36806726455688,208.43970799446106,2,5.208520889282227,None,,,,,,,,,,,,,,,,,,3,4,2025-02-11_15h00.05.893,comp,2024.2.5,None,2025-02-11 15h00.16.268953 -0500,
55,55,0,filler_square,None,None,None,None,None,None,None,None,None,None,2,1.5511126518249512,None,,,,,0,0,0,0,0,55,55,209,208.45968294143677,,,,,,,,,,,,,,,,,,,,,,,,,,,,,,,,,,,,,,,,,,,,,,,,,,,,,,,,,,,,,,,,,,,,,,,,,,,,,,,,,75.69304708305901,73.0583485377693,82.41930570027637,82.41930570027637,68.63697160069403,80.680852109473,2.2,2.22,-174,262,0,-282,178,-269,208.44177722930908,208.44185662269592,208.4452042579651,208.45968294143677,208.59986305236816,208.59986305236816,208.59986305236816,208.59986305236816,208.59986305236816,208.59986305236816,208.59986305236816,210.02564883232117,2,1.5511126518249512,None,,,,,,,,,,,,,,,,,,3,4,2025-02-11_15h00.05.893,comp,2024.2.5,None,2025-02-11 15h00.16.268953 -0500,
56,56,0,filler_random,None,None,None,None,None,None,None,None,None,None,2,1.6886513233184814,None,,,,,0,0,0,0,0,56,56,154,210.04292225837708,,,,,,,,,,,,,,,,,,,,,,,,,,,,,,,,,,,,,,,,,,,,,,,,,,,,,,,,,,,,,,,,,,,,,,,,,,,,,,,,,57.887005115128645,89.26192623284518,151.49829371798006,162.75801052217864,122.60852937608037,169.23114760845334,4.0,4.1,-222,-282,0,19,262,-277,210.02730917930603,210.02742338180542,210.03023958206177,210.04292225837708,210.18674325942993,210.18674325942993,210.18674325942993,210.18674325942993,210.18674325942993,210.18674325942993,210.18674325942993,211.73752355575562,2,1.6886513233184814,None,,,,,,,,,,,,,,,,,,3,4,2025-02-11_15h00.05.893,comp,2024.2.5,None,2025-02-11 15h00.16.268953 -0500,
57,57,0,filler_square,None,None,None,None,None,None,None,None,None,None,3,1.776439905166626,None,,,,,0,0,0,0,0,57,57,176,211.7544379234314,,,,,,,,,,,,,,,,,,,,,,,,,,,,,,,,,,,,,,,,,,,,,,,,,,,,,,,,,,,,,,,,,,,,,,,,,,,,,,,,,64.72262682682309,62.68417682449831,62.77573949510213,62.02871160110657,71.86950506156035,71.86950506156035,2.1,2.11,-158,270,0,270,163,-269,211.7396638393402,211.73974537849426,211.74357175827026,211.7544379234314,211.9038336277008,211.9038336277008,211.9038336277008,211.9038336277008,211.9038336277008,211.9038336277008,211.9038336277008,213.55001640319824,3,1.776439905166626,None,,,,,,,,,,,,,,,,,,3,4,2025-02-11_15h00.05.893,comp,2024.2.5,None,2025-02-11 15h00.16.268953 -0500,
58,58,0,critical,hwd,45.0,2.1,lower,133.0,57.0,57.0,133.0,65.0,65.0,2,1.9687778949737549,None,,,,,0,0,0,0,0,58,58,16,213.5702314376831,,,,,,,,,,,,,,,,,,,,,,,,,,,,,,,,,,,,,,,,,,,,,,,,,,,,,,,,,,,,,,,,,,,,,,,,,,,,,,,,,133.0,57.0,57.0,133.0,65.0,65.0,2.1,2.12,-191,-286,0,-257,195,268,213.5516335964203,213.5517077445984,213.55494952201843,213.5702314376831,213.7034215927124,213.7034215927124,213.7034215927124,213.7034215927124,213.7034215927124,213.7034215927124,213.7034215927124,215.55183029174805,2,1.9687778949737549,None,,,,,,,,,,,,,,,,,,3,4,2025-02-11_15h00.05.893,comp,2024.2.5,None,2025-02-11 15h00.16.268953 -0500,
59,59,0,critical,hwd,45.0,3.0,lower,133.0,57.0,57.0,133.0,65.0,65.0,1,1.3943276405334473,None,,,,,0,0,0,0,0,59,59,98,215.5685658454895,,,,,,,,,,,,,,,,,,,,,,,,,,,,,,,,,,,,,,,,,,,,,,,,,,,,,,,,,,,,,,,,,,,,,,,,,,,,,,,,,133.0,57.0,57.0,133.0,65.0,65.0,3.0,3.2,-191,-271,0,18,195,265,215.55331945419312,215.55343556404114,215.55631160736084,215.5685658454895,215.7093584537506,215.7093584537506,215.7093584537506,215.7093584537506,215.7093584537506,215.7093584537506,215.7093584537506,216.97914576530457,1,1.3943276405334473,None,,,,,,,,,,,,,,,,,,3,4,2025-02-11_15h00.05.893,comp,2024.2.5,None,2025-02-11 15h00.16.268953 -0500,
60,60,0,critical,wdh,45.0,2.1,lower,57.0,133.0,65.0,65.0,133.0,57.0,3,2.2959322929382324,None,,,,,0,0,0,0,0,60,60,8,216.99561548233032,,,,,,,,,,,,,,,,,,,,,,,,,,,,,,,,,,,,,,,,,,,,,,,,,,,,,,,,,,,,,,,,,,,,,,,,,,,,,,,,,57.0,133.0,65.0,65.0,133.0,57.0,2.1,2.11,-195,280,0,265,157,-276,216.98085117340088,216.9809398651123,216.98428082466125,216.99561548233032,217.14224481582642,217.14224481582642,217.14224481582642,217.14224481582642,217.14224481582642,217.14224481582642,217.14224481582642,219.29690837860107,3,2.2959322929382324,None,,,,,,,,,,,,,,,,,,3,4,2025-02-11_15h00.05.893,comp,2024.2.5,None,2025-02-11 15h00.16.268953 -0500,
61,61,0,filler_random,None,None,None,None,None,None,None,None,None,None,3,2.269228458404541,None,,,,,0,0,0,0,0,61,61,165,219.3177146911621,,,,,,,,,,,,,,,,,,,,,,,,,,,,,,,,,,,,,,,,,,,,,,,,,,,,,,,,,,,,,,,,,,,,,,,,,,,,,,,,,124.11648289189307,164.28435050236737,62.54912194643247,92.70329134393577,128.7210352493944,169.81684834928598,1.0,1.1,-704,276,-480,281,-253,276,219.29886841773987,219.2989501953125,219.30215048789978,219.3177146911621,219.45578145980835,219.45578145980835,219.45578145980835,219.45578145980835,219.45578145980835,219.45578145980835,219.45578145980835,221.58995604515076,3,2.269228458404541,None,,,,,,,,,,,,,,,,,,3,4,2025-02-11_15h00.05.893,comp,2024.2.5,None,2025-02-11 15h00.16.268953 -0500,
62,62,0,critical,hdw,45.0,3.0,upper,200.0,125.0,117.0,117.0,125.0,200.0,1,2.0613932609558105,None,,,,,0,0,0,0,0,62,62,111,221.60638117790222,,,,,,,,,,,,,,,,,,,,,,,,,,,,,,,,,,,,,,,,,,,,,,,,,,,,,,,,,,,,,,,,,,,,,,,,,,,,,,,,,200.0,125.0,117.0,117.0,125.0,200.0,3.0,3.2,-217,-260,0,-8,254,264,221.59153294563293,221.5916121006012,221.59574508666992,221.60638117790222,221.76149225234985,221.76149225234985,221.76149225234985,221.76149225234985,221.76149225234985,221.76149225234985,221.76149225234985,223.67432188987732,1,2.0613932609558105,None,,,,,,,,,,,,,,,,,,3,4,2025-02-11_15h00.05.893,comp,2024.2.5,None,2025-02-11 15h00.16.268953 -0500,
63,63,0,critical,dwh,60.0,2.1,lower,55.0,55.0,57.0,133.0,133.0,57.0,2,1.2092351913452148,None,,,,,0,0,0,0,0,63,63,30,223.69014835357666,,,,,,,,,,,,,,,,,,,,,,,,,,,,,,,,,,,,,,,,,,,,,,,,,,,,,,,,,,,,,,,,,,,,,,,,,,,,,,,,,55.0,55.0,57.0,133.0,133.0,57.0,2.1,2.12,-190,-256,0,-280,191,264,223.67595624923706,223.6760356426239,223.67947435379028,223.69014835357666,223.8464753627777,223.8464753627777,223.8464753627777,223.8464753627777,223.8464753627777,223.8464753627777,223.8464753627777,224.90895891189575,2,1.2092351913452148,None,,,,,,,,,,,,,,,,,,3,4,2025-02-11_15h00.05.893,comp,2024.2.5,None,2025-02-11 15h00.16.268953 -0500,
64,64,0,critical,dwh,60.0,4.0,lower,55.0,55.0,57.0,133.0,133.0,57.0,3,1.3323979377746582,None,,,,,0,0,0,0,0,64,64,70,224.92657732963562,,,,,,,,,,,,,,,,,,,,,,,,,,,,,,,,,,,,,,,,,,,,,,,,,,,,,,,,,,,,,,,,,,,,,,,,,,,,,,,,,55.0,55.0,57.0,133.0,133.0,57.0,4.0,4.1,-190,-266,0,13,191,-284,224.91055130958557,224.9106318950653,224.91386151313782,224.92657732963562,225.07385802268982,225.07385802268982,225.07385802268982,225.07385802268982,225.07385802268982,225.07385802268982,225.07385802268982,226.27564072608948,3,1.3323979377746582,None,,,,,,,,,,,,,,,,,,3,4,2025-02-11_15h00.05.893,comp,2024.2.5,None,2025-02-11 15h00.16.268953 -0500,
65,65,0,filler_square,None,None,None,None,None,None,None,None,None,None,2,11.62415099143982,None,,,,,0,0,0,0,0,65,65,207,226.29173183441162,,,,,,,,,,,,,,,,,,,,,,,,,,,,,,,,,,,,,,,,,,,,,,,,,,,,,,,,,,,,,,,,,,,,,,,,,,,,,,,,,65.48919038058585,65.48919038058585,58.12959866258258,64.4259636925772,57.59943022436666,61.03813506103654,3.0,3.1,-161,257,0,3,159,-275,226.27771925926208,226.27779912948608,226.28131365776062,226.29173183441162,226.4518883228302,226.4518883228302,226.4518883228302,226.4518883228302,226.4518883228302,226.4518883228302,226.4518883228302,237.91927576065063,2,11.62415099143982,None,,,,,,,,,,,,,,,,,,3,4,2025-02-11_15h00.05.893,comp,2024.2.5,None,2025-02-11 15h00.16.268953 -0500,
66,66,0,critical,whd,60.0,2.1,lower,57.0,133.0,133.0,57.0,55.0,55.0,1,1.9328606128692627,None,,,,,0,0,0,0,0,66,66,38,237.93439984321594,,,,,,,,,,,,,,,,,,,,,,,,,,,,,,,,,,,,,,,,,,,,,,,,,,,,,,,,,,,,,,,,,,,,,,,,,,,,,,,,,57.0,133.0,133.0,57.0,55.0,55.0,2.1,2.12,-191,-252,0,-255,152,274,237.92078185081482,237.92085528373718,237.92369508743286,237.93439984321594,238.07629942893982,238.07629942893982,238.07629942893982,238.07629942893982,238.07629942893982,238.07629942893982,238.07629942893982,239.87788152694702,1,1.9328606128692627,None,,,,,,,,,,,,,,,,,,3,4,2025-02-11_15h00.05.893,comp,2024.2.5,None,2025-02-11 15h00.16.268953 -0500,
67,67,0,catch,None,None,None,None,None,None,None,None,None,None,1,1.813356876373291,None,,,,,0,0,0,0,0,67,67,122,239.89458227157593,,,,,,,,,,,,,,,,,,,,,,,,,,,,,,,,,,,,,,,,,,,,,,,,,,,,,,,,,,,,,,,,,,,,,,,,,,,,,,,,,149,176,77,113,67,123,1.0,1.3,240,-251,480,-277,694,-273,239.87973046302795,239.87980771064758,239.88297367095947,239.89458227157593,240.04550743103027,240.04550743103027,240.04550743103027,240.04550743103027,240.04550743103027,240.04550743103027,240.04550743103027,241.71308255195618,1,1.813356876373291,None,,,,,,,,,,,,,,,,,,3,4,2025-02-11_15h00.05.893,comp,2024.2.5,None,2025-02-11 15h00.16.268953 -0500,
68,68,0,filler_random,None,None,None,None,None,None,None,None,None,None,2,1.4820449352264404,None,,,,,0,0,0,0,0,68,68,143,241.72932171821594,,,,,,,,,,,,,,,,,,,,,,,,,,,,,,,,,,,,,,,,,,,,,,,,,,,,,,,,,,,,,,,,,,,,,,,,,,,,,,,,,124.3215849483007,114.07961980650785,138.6560804766188,162.2747122434655,102.01931940617007,81.14272055069932,2.1,2.11,-234,278,0,269,218,-251,241.71484971046448,241.7149715423584,241.7184557914734,241.72932171821594,241.8773045539856,241.8773045539856,241.8773045539856,241.8773045539856,241.8773045539856,241.8773045539856,241.8773045539856,243.2203311920166,2,1.4820449352264404,None,,,,,,,,,,,,,,,,,,3,4,2025-02-11_15h00.05.893,comp,2024.2.5,None,2025-02-11 15h00.16.268953 -0500,
69,69,0,catch,None,None,None,None,None,None,None,None,None,None,3,1.4155054092407227,None,,,,,0,0,0,0,0,69,69,125,243.2368564605713,,,,,,,,,,,,,,,,,,,,,,,,,,,,,,,,,,,,,,,,,,,,,,,,,,,,,,,,,,,,,,,,,,,,,,,,,,,,,,,,,88,102,83,107,185,140,3.0,3.2,-200,-287,0,6,220,255,243.22255206108093,243.2226333618164,243.22599720954895,243.2368564605713,243.37976121902466,243.37976121902466,243.37976121902466,243.37976121902466,243.37976121902466,243.37976121902466,243.37976121902466,244.66682982444763,3,1.4155054092407227,None,,,,,,,,,,,,,,,,,,3,4,2025-02-11_15h00.05.893,comp,2024.2.5,None,2025-02-11 15h00.16.268953 -0500,
70,70,0,critical,dwh,60.0,2.1,upper,100.0,100.0,125.0,200.0,200.0,125.0,2,1.8169019222259521,None,,,,,0,0,0,0,0,70,70,7,244.6822807788849,,,,,,,,,,,,,,,,,,,,,,,,,,,,,,,,,,,,,,,,,,,,,,,,,,,,,,,,,,,,,,,,,,,,,,,,,,,,,,,,,100.0,100.0,125.0,200.0,200.0,125.0,2.1,2.12,-246,-266,0,-266,258,265,244.6689305305481,244.66901087760925,244.67192673683167,244.6822807788849,244.8320586681366,244.8320586681366,244.8320586681366,244.8320586681366,244.8320586681366,244.8320586681366,244.8320586681366,246.51483750343323,2,1.8169019222259521,None,,,,,,,,,,,,,,,,,,3,4,2025-02-11_15h00.05.893,comp,2024.2.5,None,2025-02-11 15h00.16.268953 -0500,
71,71,0,critical,whd,60.0,4.0,upper,125.0,200.0,200.0,125.0,100.0,100.0,1,1.8726518154144287,None,,,,,0,0,0,0,0,71,71,95,246.530668258667,,,,,,,,,,,,,,,,,,,,,,,,,,,,,,,,,,,,,,,,,,,,,,,,,,,,,,,,,,,,,,,,,,,,,,,,,,,,,,,,,125.0,200.0,200.0,125.0,100.0,100.0,4.0,4.2,-258,3,0,-256,208,4,246.51629042625427,246.5163860321045,246.51945853233337,246.530668258667,246.68272042274475,246.68272042274475,246.68272042274475,246.68272042274475,246.68272042274475,246.68272042274475,246.68272042274475,248.41580295562744,1,1.8726518154144287,None,,,,,,,,,,,,,,,,,,3,4,2025-02-11_15h00.05.893,comp,2024.2.5,None,2025-02-11 15h00.16.268953 -0500,
72,72,0,critical,dwh,45.0,2.1,lower,65.0,65.0,57.0,133.0,133.0,57.0,2,1.8385491371154785,None,,,,,0,0,0,0,0,72,72,4,248.4370687007904,,,,,,,,,,,,,,,,,,,,,,,,,,,,,,,,,,,,,,,,,,,,,,,,,,,,,,,,,,,,,,,,,,,,,,,,,,,,,,,,,65.0,65.0,57.0,133.0,133.0,57.0,2.1,2.12,-195,-278,0,-262,191,286,248.41730904579163,248.41742372512817,248.4206566810608,248.4370687007904,248.58250164985657,248.58250164985657,248.58250164985657,248.58250164985657,248.58250164985657,248.58250164985657,248.58250164985657,250.28437089920044,2,1.8385491371154785,None,,,,,,,,,,,,,,,,,,3,4,2025-02-11_15h00.05.893,comp,2024.2.5,None,2025-02-11 15h00.16.268953 -0500,
73,73,0,critical,dwh,60.0,3.0,upper,100.0,100.0,125.0,200.0,200.0,125.0,2,1.5088410377502441,None,,,,,0,0,0,0,0,73,73,69,250.3028585910797,,,,,,,,,,,,,,,,,,,,,,,,,,,,,,,,,,,,,,,,,,,,,,,,,,,,,,,,,,,,,,,,,,,,,,,,,,,,,,,,,100.0,100.0,125.0,200.0,200.0,125.0,3.0,3.1,-246,253,0,-12,258,-282,250.28598070144653,250.28605604171753,250.2898187637329,250.3028585910797,250.44849753379822,250.44849753379822,250.44849753379822,250.44849753379822,250.44849753379822,250.44849753379822,250.44849753379822,251.8324453830719,2,1.5088410377502441,None,,,,,,,,,,,,,,,,,,3,4,2025-02-11_15h00.05.893,comp,2024.2.5,None,2025-02-11 15h00.16.268953 -0500,
74,74,0,critical,hdw,60.0,4.0,upper,200.0,125.0,100.0,100.0,125.0,200.0,3,3.9754257202148438,None,,,,,0,0,0,0,0,74,74,119,251.8526954650879,,,,,,,,,,,,,,,,,,,,,,,,,,,,,,,,,,,,,,,,,,,,,,,,,,,,,,,,,,,,,,,,,,,,,,,,,,,,,,,,,200.0,125.0,100.0,100.0,125.0,200.0,4.0,4.2,-208,-6,0,-279,246,-17,251.83399200439453,251.83406734466553,251.8373646736145,251.8526954650879,252.00069856643677,252.00069856643677,252.00069856643677,252.00069856643677,252.00069856643677,252.00069856643677,252.00069856643677,255.8362364768982,3,3.9754257202148438,None,,,,,,,,,,,,,,,,,,3,4,2025-02-11_15h00.05.893,comp,2024.2.5,None,2025-02-11 15h00.16.268953 -0500,
75,75,0,critical,hdw,45.0,2.1,upper,200.0,125.0,117.0,117.0,125.0,200.0,1,2.388157844543457,None,,,,,0,0,0,0,0,75,75,21,255.85679864883423,,,,,,,,,,,,,,,,,,,,,,,,,,,,,,,,,,,,,,,,,,,,,,,,,,,,,,,,,,,,,,,,,,,,,,,,,,,,,,,,,200.0,125.0,117.0,117.0,125.0,200.0,2.1,2.12,-217,-289,0,-264,254,289,255.8378324508667,255.83791375160217,255.84111785888672,255.85679864883423,255.99795365333557,255.99795365333557,255.99795365333557,255.99795365333557,255.99795365333557,255.99795365333557,255.99795365333557,258.25215435028076,1,2.388157844543457,None,,,,,,,,,,,,,,,,,,3,4,2025-02-11_15h00.05.893,comp,2024.2.5,None,2025-02-11 15h00.16.268953 -0500,
76,76,0,filler_random,None,None,None,None,None,None,None,None,None,None,3,4.12710976600647,None,,,,,0,0,0,0,0,76,76,148,258.2690532207489,,,,,,,,,,,,,,,,,,,,,,,,,,,,,,,,,,,,,,,,,,,,,,,,,,,,,,,,,,,,,,,,,,,,,,,,,,,,,,,,,58.89698232717502,86.18478581911332,105.70271333624297,192.99471152531788,137.9864601752738,158.8953865480643,4.0,4.2,-236,-5,0,-253,272,-5,258.2539732456207,258.2540988922119,258.2573895454407,258.2690532207489,258.4238886833191,258.4238886833191,258.4238886833191,258.4238886833191,258.4238886833191,258.4238886833191,258.4238886833191,262.40356492996216,3,4.12710976600647,None,,,,,,,,,,,,,,,,,,3,4,2025-02-11_15h00.05.893,comp,2024.2.5,None,2025-02-11 15h00.16.268953 -0500,
77,77,0,filler_square,None,None,None,None,None,None,None,None,None,None,2,1.6251044273376465,None,,,,,0,0,0,0,0,77,77,202,262.4182472229004,,,,,,,,,,,,,,,,,,,,,,,,,,,,,,,,,,,,,,,,,,,,,,,,,,,,,,,,,,,,,,,,,,,,,,,,,,,,,,,,,73.28118333172858,75.16713831618574,94.04085799668931,94.04085799668931,74.6748803688152,73.18277491728783,3.0,3.1,-181,271,0,-18,180,-271,262.40540599823,262.40548825263977,262.40848684310913,262.4182472229004,262.57382893562317,262.57382893562317,262.57382893562317,262.57382893562317,262.57382893562317,262.57382893562317,262.57382893562317,264.0604319572449,2,1.6251044273376465,None,,,,,,,,,,,,,,,,,,3,4,2025-02-11_15h00.05.893,comp,2024.2.5,None,2025-02-11 15h00.16.268953 -0500,
78,78,0,critical,hdw,45.0,1.0,lower,133.0,57.0,65.0,65.0,57.0,133.0,3,3.485275983810425,None,,,,,0,0,0,0,0,78,78,108,264.0782709121704,,,,,,,,,,,,,,,,,,,,,,,,,,,,,,,,,,,,,,,,,,,,,,,,,,,,,,,,,,,,,,,,,,,,,,,,,,,,,,,,,133.0,57.0,65.0,65.0,57.0,133.0,1.0,1.1,-637,269,-480,253,-285,251,264.06206345558167,264.06213903427124,264.0655176639557,264.0782709121704,264.2190065383911,264.2190065383911,264.2190065383911,264.2190065383911,264.2190065383911,264.2190065383911,264.2190065383911,267.5692973136902,3,3.485275983810425,None,,,,,,,,,,,,,,,,,,3,4,2025-02-11_15h00.05.893,comp,2024.2.5,None,2025-02-11 15h00.16.268953 -0500,
79,79,0,filler_square,None,None,None,None,None,None,None,None,None,None,2,1.3767318725585938,None,,,,,0,0,0,0,0,79,79,192,267.5891571044922,,,,,,,,,,,,,,,,,,,,,,,,,,,,,,,,,,,,,,,,,,,,,,,,,,,,,,,,,,,,,,,,,,,,,,,,,,,,,,,,,66.44108805638203,156.54902364626747,185.75379702921344,185.75379702921344,156.39326510137494,78.17768256108448,1.0,1.2,-267,-6,0,13,228,-5,267.57141852378845,267.57150053977966,267.5747516155243,267.5891571044922,267.73989701271057,267.73989701271057,267.73989701271057,267.73989701271057,267.73989701271057,267.73989701271057,267.73989701271057,268.9718773365021,2,1.3767318725585938,None,,,,,,,,,,,,,,,,,,3,4,2025-02-11_15h00.05.893,comp,2024.2.5,None,2025-02-11 15h00.16.268953 -0500,
80,80,0,critical,hwd,45.0,1.0,upper,200.0,125.0,125.0,200.0,117.0,117.0,2,1.7433810234069824,None,,,,,0,0,0,0,0,80,80,97,268.98851132392883,,,,,,,,,,,,,,,,,,,,,,,,,,,,,,,,,,,,,,,,,,,,,,,,,,,,,,,,,,,,,,,,,,,,,,,,,,,,,,,,,200.0,125.0,125.0,200.0,117.0,117.0,1.0,1.3,222,-272,480,-289,734,-269,268.97355127334595,268.97362756729126,268.97694206237793,268.98851132392883,269.14245867729187,269.14245867729187,269.14245867729187,269.14245867729187,269.14245867729187,269.14245867729187,269.14245867729187,270.7402093410492,2,1.7433810234069824,None,,,,,,,,,,,,,,,,,,3,4,2025-02-11_15h00.05.893,comp,2024.2.5,None,2025-02-11 15h00.16.268953 -0500,
81,81,0,critical,hwd,45.0,2.1,upper,200.0,125.0,125.0,200.0,117.0,117.0,2,2.5977072715759277,None,,,,,0,0,0,0,0,81,81,17,270.7587339878082,,,,,,,,,,,,,,,,,,,,,,,,,,,,,,,,,,,,,,,,,,,,,,,,,,,,,,,,,,,,,,,,,,,,,,,,,,,,,,,,,200.0,125.0,125.0,200.0,117.0,117.0,2.1,2.12,-258,-288,0,-255,254,283,270.74178433418274,270.7419013977051,270.74566888809204,270.7587339878082,270.90568828582764,270.90568828582764,270.90568828582764,270.90568828582764,270.90568828582764,270.90568828582764,270.90568828582764,273.3628509044647,2,2.5977072715759277,None,,,,,,,,,,,,,,,,,,3,4,2025-02-11_15h00.05.893,comp,2024.2.5,None,2025-02-11 15h00.16.268953 -0500,
82,82,0,filler_square,None,None,None,None,None,None,None,None,None,None,3,1.7833623886108398,None,,,,,0,0,0,0,0,82,82,177,273.3801374435425,,,,,,,,,,,,,,,,,,,,,,,,,,,,,,,,,,,,,,,,,,,,,,,,,,,,,,,,,,,,,,,,,,,,,,,,,,,,,,,,,68.71540210531319,65.01764155693576,67.86408114575721,62.300308771780706,84.30696249625689,84.30696249625689,4.0,4.2,-160,-11,0,-279,169,0,273.36476469039917,273.3648452758789,273.3679118156433,273.3801374435425,273.52581691741943,273.52581691741943,273.52581691741943,273.52581691741943,273.52581691741943,273.52581691741943,273.52581691741943,275.1759662628174,3,1.7833623886108398,None,,,,,,,,,,,,,,,,,,3,4,2025-02-11_15h00.05.893,comp,2024.2.5,None,2025-02-11 15h00.16.268953 -0500,
83,83,0,filler_random,None,None,None,None,None,None,None,None,None,None,2,1.49037766456604,None,,,,,0,0,0,0,0,83,83,167,275.1940302848816,,,,,,,,,,,,,,,,,,,,,,,,,,,,,,,,,,,,,,,,,,,,,,,,,,,,,,,,,,,,,,,,,,,,,,,,,,,,,,,,,92.79116637696839,118.20541681554198,188.2604223391809,106.26458522095201,146.86152123708152,94.4252208123431,2.2,2.21,-208,-284,0,289,196,252,275.1777698993683,275.17784810066223,275.1811349391937,275.1940302848816,275.3402898311615,275.3402898311615,275.3402898311615,275.3402898311615,275.3402898311615,275.3402898311615,275.3402898311615,276.6919400691986,2,1.49037766456604,None,,,,,,,,,,,,,,,,,,3,4,2025-02-11_15h00.05.893,comp,2024.2.5,None,2025-02-11 15h00.16.268953 -0500,
84,84,0,critical,dhw,45.0,3.0,upper,117.0,117.0,200.0,125.0,125.0,200.0,2,1.4876508712768555,None,,,,,0,0,0,0,0,84,84,51,276.7078242301941,,,,,,,,,,,,,,,,,,,,,,,,,,,,,,,,,,,,,,,,,,,,,,,,,,,,,,,,,,,,,,,,,,,,,,,,,,,,,,,,,117.0,117.0,200.0,125.0,125.0,200.0,3.0,3.2,-217,-276,0,-12,258,277,276.69348192214966,276.6935806274414,276.69695472717285,276.7078242301941,276.86149549484253,276.86149549484253,276.86149549484253,276.86149549484253,276.86149549484253,276.86149549484253,276.86149549484253,278.20736360549927,2,1.4876508712768555,None,,,,,,,,,,,,,,,,,,3,4,2025-02-11_15h00.05.893,comp,2024.2.5,None,2025-02-11 15h00.16.268953 -0500,
85,85,0,critical,dhw,60.0,2.1,upper,100.0,100.0,200.0,125.0,125.0,200.0,3,1.7524311542510986,None,,,,,0,0,0,0,0,85,85,27,278.22716522216797,,,,,,,,,,,,,,,,,,,,,,,,,,,,,,,,,,,,,,,,,,,,,,,,,,,,,,,,,,,,,,,,,,,,,,,,,,,,,,,,,100.0,100.0,200.0,125.0,125.0,200.0,2.1,2.11,-208,287,0,265,258,-287,278.2089433670044,278.209023475647,278.2121248245239,278.22716522216797,278.36291098594666,278.36291098594666,278.36291098594666,278.36291098594666,278.36291098594666,278.36291098594666,278.36291098594666,279.9945912361145,3,1.7524311542510986,None,,,,,,,,,,,,,,,,,,3,4,2025-02-11_15h00.05.893,comp,2024.2.5,None,2025-02-11 15h00.16.268953 -0500,
86,86,0,filler_random,None,None,None,None,None,None,None,None,None,None,3,1.2634150981903076,None,,,,,0,0,0,0,0,86,86,147,280.01222109794617,,,,,,,,,,,,,,,,,,,,,,,,,,,,,,,,,,,,,,,,,,,,,,,,,,,,,,,,,,,,,,,,,,,,,,,,,,,,,,,,,60.62596292520719,192.69788433925623,147.08945716779718,79.5338621648086,119.779769521789,179.6912120110602,2.1,2.11,-232,289,0,260,226,-286,279.99628615379333,279.9964048862457,279.9992651939392,280.01222109794617,280.15901494026184,280.15901494026184,280.15901494026184,280.15901494026184,280.15901494026184,280.15901494026184,280.15901494026184,281.27796626091003,3,1.2634150981903076,None,,,,,,,,,,,,,,,,,,3,4,2025-02-11_15h00.05.893,comp,2024.2.5,None,2025-02-11 15h00.16.268953 -0500,
87,87,0,critical,wdh,45.0,4.0,lower,57.0,133.0,65.0,65.0,133.0,57.0,1,4.118305683135986,None,,,,,0,0,0,0,0,87,87,76,281.29331707954407,,,,,,,,,,,,,,,,,,,,,,,,,,,,,,,,,,,,,,,,,,,,,,,,,,,,,,,,,,,,,,,,,,,,,,,,,,,,,,,,,57.0,133.0,65.0,65.0,133.0,57.0,4.0,4.1,-195,-280,0,20,157,-272,281.27963876724243,281.27971386909485,281.2827455997467,281.29331707954407,281.4460074901581,281.4460074901581,281.4460074901581,281.4460074901581,281.4460074901581,281.4460074901581,281.4460074901581,285.4280495643616,1,4.118305683135986,None,,,,,,,,,,,,,,,,,,3,4,2025-02-11_15h00.05.893,comp,2024.2.5,None,2025-02-11 15h00.16.268953 -0500,
88,88,0,critical,hdw,60.0,3.0,upper,200.0,125.0,100.0,100.0,125.0,200.0,1,1.9918553829193115,None,,,,,0,0,0,0,0,88,88,117,285.4438123703003,,,,,,,,,,,,,,,,,,,,,,,,,,,,,,,,,,,,,,,,,,,,,,,,,,,,,,,,,,,,,,,,,,,,,,,,,,,,,,,,,200.0,125.0,100.0,100.0,125.0,200.0,3.0,3.2,-208,-283,0,-3,246,264,285.4296905994415,285.42976784706116,285.43323493003845,285.4438123703003,285.59262347221375,285.59262347221375,285.59262347221375,285.59262347221375,285.59262347221375,285.59262347221375,285.59262347221375,287.45594692230225,1,1.9918553829193115,None,,,,,,,,,,,,,,,,,,3,4,2025-02-11_15h00.05.893,comp,2024.2.5,None,2025-02-11 15h00.16.268953 -0500,
89,89,0,filler_random,None,None,None,None,None,None,None,None,None,None,3,2.9037888050079346,None,,,,,0,0,0,0,0,89,89,138,287.47582936286926,,,,,,,,,,,,,,,,,,,,,,,,,,,,,,,,,,,,,,,,,,,,,,,,,,,,,,,,,,,,,,,,,,,,,,,,,,,,,,,,,173.2802671773642,85.93159162763142,121.81925901499068,111.25715166374289,135.5160489368123,120.54286217131127,1.0,1.3,285,-253,480,-282,692,-261,287.45764350891113,287.4577202796936,287.46061396598816,287.47582936286926,287.6114695072174,287.6114695072174,287.6114695072174,287.6114695072174,287.6114695072174,287.6114695072174,287.6114695072174,290.3956437110901,3,2.9037888050079346,None,,,,,,,,,,,,,,,,,,3,4,2025-02-11_15h00.05.893,comp,2024.2.5,None,2025-02-11 15h00.16.268953 -0500,
90,90,0,critical,dwh,45.0,2.1,upper,117.0,117.0,125.0,200.0,200.0,125.0,2,1.680351972579956,None,,,,,0,0,0,0,0,90,90,29,290.411687374115,,,,,,,,,,,,,,,,,,,,,,,,,,,,,,,,,,,,,,,,,,,,,,,,,,,,,,,,,,,,,,,,,,,,,,,,,,,,,,,,,117.0,117.0,125.0,200.0,200.0,125.0,2.1,2.11,-254,270,0,256,258,-250,290.39718437194824,290.3972623348236,290.4004988670349,290.411687374115,290.5647656917572,290.5647656917572,290.5647656917572,290.5647656917572,290.5647656917572,290.5647656917572,290.5647656917572,292.09432768821716,2,1.680351972579956,None,,,,,,,,,,,,,,,,,,3,4,2025-02-11_15h00.05.893,comp,2024.2.5,None,2025-02-11 15h00.16.268953 -0500,
91,91,0,catch,None,None,None,None,None,None,None,None,None,None,3,1.5167760848999023,None,,,,,0,0,0,0,0,91,91,129,292.1111958026886,,,,,,,,,,,,,,,,,,,,,,,,,,,,,,,,,,,,,,,,,,,,,,,,,,,,,,,,,,,,,,,,,,,,,,,,,,,,,,,,,85,105,71,119,170,155,1.0,1.2,-208,12,0,8,233,-8,292.09620547294617,292.09628534317017,292.09951639175415,292.1111958026886,292.2513077259064,292.2513077259064,292.2513077259064,292.2513077259064,292.2513077259064,292.2513077259064,292.2513077259064,293.63323497772217,3,1.5167760848999023,None,,,,,,,,,,,,,,,,,,3,4,2025-02-11_15h00.05.893,comp,2024.2.5,None,2025-02-11 15h00.16.268953 -0500,
92,92,0,critical,whd,45.0,3.0,lower,57.0,133.0,133.0,57.0,65.0,65.0,1,2.2551093101501465,None,,,,,0,0,0,0,0,92,92,86,293.653281211853,,,,,,,,,,,,,,,,,,,,,,,,,,,,,,,,,,,,,,,,,,,,,,,,,,,,,,,,,,,,,,,,,,,,,,,,,,,,,,,,,57.0,133.0,133.0,57.0,65.0,65.0,3.0,3.1,-191,256,0,-8,157,-283,293.6348400115967,293.63491559028625,293.6378483772278,293.653281211853,293.7970018386841,293.7970018386841,293.7970018386841,293.7970018386841,293.7970018386841,293.7970018386841,293.7970018386841,295.9172430038452,1,2.2551093101501465,None,,,,,,,,,,,,,,,,,,3,4,2025-02-11_15h00.05.893,comp,2024.2.5,None,2025-02-11 15h00.16.268953 -0500,
93,93,0,critical,dwh,45.0,1.0,upper,117.0,117.0,125.0,200.0,200.0,125.0,2,1.4462392330169678,None,,,,,0,0,0,0,0,93,93,61,295.93341159820557,,,,,,,,,,,,,,,,,,,,,,,,,,,,,,,,,,,,,,,,,,,,,,,,,,,,,,,,,,,,,,,,,,,,,,,,,,,,,,,,,117.0,117.0,125.0,200.0,200.0,125.0,1.0,1.1,-734,255,-480,283,-222,284,295.91885232925415,295.91893196105957,295.92277240753174,295.93341159820557,296.07947421073914,296.07947421073914,296.07947421073914,296.07947421073914,296.07947421073914,296.07947421073914,296.07947421073914,297.3995566368103,2,1.4462392330169678,None,,,,,,,,,,,,,,,,,,3,4,2025-02-11_15h00.05.893,comp,2024.2.5,None,2025-02-11 15h00.16.268953 -0500,
94,94,0,critical,hdw,45.0,2.1,lower,133.0,57.0,65.0,65.0,57.0,133.0,3,1.4665212631225586,None,,,,,0,0,0,0,0,94,94,20,297.41726660728455,,,,,,,,,,,,,,,,,,,,,,,,,,,,,,,,,,,,,,,,,,,,,,,,,,,,,,,,,,,,,,,,,,,,,,,,,,,,,,,,,133.0,57.0,65.0,65.0,57.0,133.0,2.1,2.11,-157,273,0,250,195,-265,297.4011220932007,297.40119528770447,297.4045271873474,297.41726660728455,297.56361746788025,297.56361746788025,297.56361746788025,297.56361746788025,297.56361746788025,297.56361746788025,297.56361746788025,298.897980928421,3,1.4665212631225586,None,,,,,,,,,,,,,,,,,,3,4,2025-02-11_15h00.05.893,comp,2024.2.5,None,2025-02-11 15h00.16.268953 -0500,
95,95,0,filler_random,None,None,None,None,None,None,None,None,None,None,1,1.8818371295928955,None,,,,,0,0,0,0,0,95,95,150,298.91417264938354,,,,,,,,,,,,,,,,,,,,,,,,,,,,,,,,,,,,,,,,,,,,,,,,,,,,,,,,,,,,,,,,,,,,,,,,,,,,,,,,,125.97156267515525,171.60351220343188,86.66602027267284,193.4975993659888,170.60402654310857,111.34487756906678,2.1,2.12,-279,-282,0,-275,248,277,298.8999571800232,298.9000461101532,298.90385460853577,298.91417264938354,299.06712675094604,299.06712675094604,299.06712675094604,299.06712675094604,299.06712675094604,299.06712675094604,299.06712675094604,300.7995436191559,1,1.8818371295928955,None,,,,,,,,,,,,,,,,,,3,4,2025-02-11_15h00.05.893,comp,2024.2.5,None,2025-02-11 15h00.16.268953 -0500,
96,96,0,filler_random,None,None,None,None,None,None,None,None,None,None,2,2.2516746520996094,None,,,,,0,0,0,0,0,96,96,136,300.81619596481323,,,,,,,,,,,,,,,,,,,,,,,,,,,,,,,,,,,,,,,,,,,,,,,,,,,,,,,,,,,,,,,,,,,,,,,,,,,,,,,,,195.81160570746863,59.15885468225897,111.62609559017659,137.71255596805887,78.42185919194817,184.15462235140092,3.0,3.2,-194,-252,0,1,257,253,300.801287651062,300.8014063835144,300.80542826652527,300.81619596481323,300.96643924713135,300.96643924713135,300.96643924713135,300.96643924713135,300.96643924713135,300.96643924713135,300.96643924713135,303.0862503051758,2,2.2516746520996094,None,,,,,,,,,,,,,,,,,,3,4,2025-02-11_15h00.05.893,comp,2024.2.5,None,2025-02-11 15h00.16.268953 -0500,
97,97,0,critical,hdw,60.0,2.1,upper,200.0,125.0,100.0,100.0,125.0,200.0,3,1.8727681636810303,None,,,,,0,0,0,0,0,97,97,23,303.10695362091064,,,,,,,,,,,,,,,,,,,,,,,,,,,,,,,,,,,,,,,,,,,,,,,,,,,,,,,,,,,,,,,,,,,,,,,,,,,,,,,,,200.0,125.0,100.0,100.0,125.0,200.0,2.1,2.11,-208,260,0,277,246,-251,303.08793115615845,303.088063955307,303.0916175842285,303.10695362091064,303.249981880188,303.249981880188,303.249981880188,303.249981880188,303.249981880188,303.249981880188,303.249981880188,304.98337984085083,3,1.8727681636810303,None,,,,,,,,,,,,,,,,,,3,4,2025-02-11_15h00.05.893,comp,2024.2.5,None,2025-02-11 15h00.16.268953 -0500,
98,98,0,filler_random,None,None,None,None,None,None,None,None,None,None,1,3.445096015930176,None,,,,,0,0,0,0,0,98,98,164,304.9993214607239,,,,,,,,,,,,,,,,,,,,,,,,,,,,,,,,,,,,,,,,,,,,,,,,,,,,,,,,,,,,,,,,,,,,,,,,,,,,,,,,,78.78319888366306,152.87850369987348,87.29348198843951,108.41590787055034,114.37832921324502,80.85608912251367,2.1,2.12,-227,-261,0,-286,191,282,304.9851791858673,304.98525977134705,304.98867559432983,304.9993214607239,305.13919138908386,305.13919138908386,305.13919138908386,305.13919138908386,305.13919138908386,305.13919138908386,305.13919138908386,308.45442748069763,1,3.445096015930176,None,,,,,,,,,,,,,,,,,,3,4,2025-02-11_15h00.05.893,comp,2024.2.5,None,2025-02-11 15h00.16.268953 -0500,
99,99,0,critical,wdh,60.0,3.0,lower,57.0,133.0,55.0,55.0,133.0,57.0,1,1.7211737632751465,None,,,,,0,0,0,0,0,99,99,80,308.4753186702728,,,,,,,,,,,,,,,,,,,,,,,,,,,,,,,,,,,,,,,,,,,,,,,,,,,,,,,,,,,,,,,,,,,,,,,,,,,,,,,,,57.0,133.0,55.0,55.0,133.0,57.0,3.0,3.2,-190,-274,0,-7,152,285,308.4560556411743,308.4561870098114,308.4596276283264,308.4753186702728,308.61822485923767,308.61822485923767,308.61822485923767,308.61822485923767,308.61822485923767,308.61822485923767,308.61822485923767,310.20177364349365,1,1.7211737632751465,None,,,,,,,,,,,,,,,,,,3,4,2025-02-11_15h00.05.893,comp,2024.2.5,None,2025-02-11 15h00.16.268953 -0500,
100,100,0,critical,whd,60.0,2.1,upper,125.0,200.0,200.0,125.0,100.0,100.0,2,2.114880323410034,None,,,,,0,0,0,0,0,100,100,39,310.2174434661865,,,,,,,,,,,,,,,,,,,,,,,,,,,,,,,,,,,,,,,,,,,,,,,,,,,,,,,,,,,,,,,,,,,,,,,,,,,,,,,,,125.0,200.0,200.0,125.0,100.0,100.0,2.1,2.12,-258,-269,0,-259,208,254,310.2033269405365,310.2034275531769,310.2068078517914,310.2174434661865,310.367014169693,310.367014169693,310.367014169693,310.367014169693,310.367014169693,310.367014169693,310.367014169693,312.3394088745117,2,2.114880323410034,None,,,,,,,,,,,,,,,,,,3,4,2025-02-11_15h00.05.893,comp,2024.2.5,None,2025-02-11 15h00.16.268953 -0500,
101,101,0,critical,hdw,60.0,2.1,upper,200.0,125.0,100.0,100.0,125.0,200.0,3,2.4044394493103027,None,,,,,0,0,0,0,0,101,101,47,312.36017537117004,,,,,,,,,,,,,,,,,,,,,,,,,,,,,,,,,,,,,,,,,,,,,,,,,,,,,,,,,,,,,,,,,,,,,,,,,,,,,,,,,200.0,125.0,100.0,100.0,125.0,200.0,2.1,2.11,-208,255,0,268,246,-265,312.3409700393677,312.3410966396332,312.3444902896881,312.36017537117004,312.50212001800537,312.50212001800537,312.50212001800537,312.50212001800537,312.50212001800537,312.50212001800537,312.50212001800537,314.7682054042816,3,2.4044394493103027,None,,,,,,,,,,,,,,,,,,3,4,2025-02-11_15h00.05.893,comp,2024.2.5,None,2025-02-11 15h00.16.268953 -0500,
102,102,0,filler_square,None,None,None,None,None,None,None,None,None,None,1,2.0512397289276123,None,,,,,0,0,0,0,0,102,102,172,314.78543853759766,,,,,,,,,,,,,,,,,,,,,,,,,,,,,,,,,,,,,,,,,,,,,,,,,,,,,,,,,,,,,,,,,,,,,,,,,,,,,,,,,179.3648592888146,179.3648592888146,150.9872254794,118.64512311511822,134.40766170475075,164.401825640295,2.1,2.11,-245,259,0,272,238,-277,314.77020835876465,314.77029156684875,314.7735571861267,314.78543853759766,314.92240166664124,314.92240166664124,314.92240166664124,314.92240166664124,314.92240166664124,314.92240166664124,314.92240166664124,316.85370922088623,1,2.0512397289276123,None,,,,,,,,,,,,,,,,,,3,4,2025-02-11_15h00.05.893,comp,2024.2.5,None,2025-02-11 15h00.16.268953 -0500,
103,103,0,critical,whd,60.0,2.1,upper,125.0,200.0,200.0,125.0,100.0,100.0,2,1.5915987491607666,None,,,,,0,0,0,0,0,103,103,15,316.8689260482788,,,,,,,,,,,,,,,,,,,,,,,,,,,,,,,,,,,,,,,,,,,,,,,,,,,,,,,,,,,,,,,,,,,,,,,,,,,,,,,,,125.0,200.0,200.0,125.0,100.0,100.0,2.1,2.11,-258,266,0,271,208,-253,316.85518765449524,316.8552634716034,316.85860228538513,316.8689260482788,317.0205955505371,317.0205955505371,317.0205955505371,317.0205955505371,317.0205955505371,317.0205955505371,317.0205955505371,318.4651596546173,2,1.5915987491607666,None,,,,,,,,,,,,,,,,,,3,4,2025-02-11_15h00.05.893,comp,2024.2.5,None,2025-02-11 15h00.16.268953 -0500,
104,104,0,critical,whd,45.0,1.0,lower,57.0,133.0,133.0,57.0,65.0,65.0,1,1.7716495990753174,None,,,,,0,0,0,0,0,104,104,84,318.48127341270447,,,,,,,,,,,,,,,,,,,,,,,,,,,,,,,,,,,,,,,,,,,,,,,,,,,,,,,,,,,,,,,,,,,,,,,,,,,,,,,,,57.0,133.0,133.0,57.0,65.0,65.0,1.0,1.1,-671,251,-480,269,-323,257,318.46669483184814,318.4667763710022,318.4696714878082,318.48127341270447,318.62078189849854,318.62078189849854,318.62078189849854,318.62078189849854,318.62078189849854,318.62078189849854,318.62078189849854,320.2584071159363,1,1.7716495990753174,None,,,,,,,,,,,,,,,,,,3,4,2025-02-11_15h00.05.893,comp,2024.2.5,None,2025-02-11 15h00.16.268953 -0500,
105,105,0,critical,hwd,60.0,2.1,lower,133.0,57.0,57.0,133.0,55.0,55.0,2,1.8177025318145752,None,,,,,0,0,0,0,0,105,105,18,320.2745223045349,,,,,,,,,,,,,,,,,,,,,,,,,,,,,,,,,,,,,,,,,,,,,,,,,,,,,,,,,,,,,,,,,,,,,,,,,,,,,,,,,133.0,57.0,57.0,133.0,55.0,55.0,2.1,2.11,-191,276,0,281,190,-288,320.25998163223267,320.26006174087524,320.2630591392517,320.2745223045349,320.42292404174805,320.42292404174805,320.42292404174805,320.42292404174805,320.42292404174805,320.42292404174805,320.42292404174805,322.1077353954315,2,1.8177025318145752,None,,,,,,,,,,,,,,,,,,3,4,2025-02-11_15h00.05.893,comp,2024.2.5,None,2025-02-11 15h00.16.268953 -0500,
106,106,0,critical,dwh,45.0,4.0,lower,65.0,65.0,57.0,133.0,133.0,57.0,2,4.176539659500122,None,,,,,0,0,0,0,0,106,106,64,322.1239950656891,,,,,,,,,,,,,,,,,,,,,,,,,,,,,,,,,,,,,,,,,,,,,,,,,,,,,,,,,,,,,,,,,,,,,,,,,,,,,,,,,65.0,65.0,57.0,133.0,133.0,57.0,4.0,4.2,-195,-15,0,-280,191,-2,322.10947155952454,322.1095492839813,322.1134207248688,322.1239950656891,322.2708189487457,322.2708189487457,322.2708189487457,322.2708189487457,322.2708189487457,322.2708189487457,322.2708189487457,326.3091642856598,2,4.176539659500122,None,,,,,,,,,,,,,,,,,,3,4,2025-02-11_15h00.05.893,comp,2024.2.5,None,2025-02-11 15h00.16.268953 -0500,
107,107,0,critical,hwd,60.0,2.1,upper,200.0,125.0,125.0,200.0,100.0,100.0,1,2.0147886276245117,None,,,,,0,0,0,0,0,107,107,43,326.32533049583435,,,,,,,,,,,,,,,,,,,,,,,,,,,,,,,,,,,,,,,,,,,,,,,,,,,,,,,,,,,,,,,,,,,,,,,,,,,,,,,,,200.0,125.0,125.0,200.0,100.0,100.0,2.1,2.11,-258,258,0,250,246,-251,326.310804605484,326.310879945755,326.31474709510803,326.32533049583435,326.4761526584625,326.4761526584625,326.4761526584625,326.4761526584625,326.4761526584625,326.4761526584625,326.4761526584625,328.3572368621826,1,2.0147886276245117,None,,,,,,,,,,,,,,,,,,3,4,2025-02-11_15h00.05.893,comp,2024.2.5,None,2025-02-11 15h00.16.268953 -0500,
108,108,0,critical,wdh,60.0,1.0,upper,125.0,200.0,100.0,100.0,200.0,125.0,1,2.927703857421875,None,,,,,0,0,0,0,0,108,108,79,328.37329292297363,,,,,,,,,,,,,,,,,,,,,,,,,,,,,,,,,,,,,,,,,,,,,,,,,,,,,,,,,,,,,,,,,,,,,,,,,,,,,,,,,125.0,200.0,100.0,100.0,200.0,125.0,1.0,1.1,-726,263,-480,264,-272,270,328.35879135131836,328.3588709831238,328.36196541786194,328.37329292297363,328.5267708301544,328.5267708301544,328.5267708301544,328.5267708301544,328.5267708301544,328.5267708301544,328.5267708301544,331.30726504325867,1,2.927703857421875,None,,,,,,,,,,,,,,,,,,3,4,2025-02-11_15h00.05.893,comp,2024.2.5,None,2025-02-11 15h00.16.268953 -0500,
109,109,0,filler_random,None,None,None,None,None,None,None,None,None,None,2,1.3044705390930176,None,,,,,0,0,0,0,0,109,109,142,331.32374572753906,,,,,,,,,,,,,,,,,,,,,,,,,,,,,,,,,,,,,,,,,,,,,,,,,,,,,,,,,,,,,,,,,,,,,,,,,,,,,,,,,61.10248789315716,99.00247807749565,142.5567021588737,141.93101674575246,67.31480378686626,57.827018458219214,2.2,2.21,-216,-272,0,285,196,265,331.3090326786041,331.30911326408386,331.3122138977051,331.32374572753906,331.47960114479065,331.47960114479065,331.47960114479065,331.47960114479065,331.47960114479065,331.47960114479065,331.47960114479065,332.6422049999237,2,1.3044705390930176,None,,,,,,,,,,,,,,,,,,3,4,2025-02-11_15h00.05.893,comp,2024.2.5,None,2025-02-11 15h00.16.268953 -0500,
110,110,0,critical,hwd,45.0,2.1,upper,200.0,125.0,125.0,200.0,117.0,117.0,2,2.2579121589660645,None,,,,,0,0,0,0,0,110,110,41,332.6581161022186,,,,,,,,,,,,,,,,,,,,,,,,,,,,,,,,,,,,,,,,,,,,,,,,,,,,,,,,,,,,,,,,,,,,,,,,,,,,,,,,,200.0,125.0,125.0,200.0,117.0,117.0,2.1,2.12,-258,-264,0,-264,254,277,332.6437816619873,332.6438593864441,332.64748096466064,332.6581161022186,332.8172128200531,332.8172128200531,332.8172128200531,332.8172128200531,332.8172128200531,332.8172128200531,332.8172128200531,334.9270317554474,2,2.2579121589660645,None,,,,,,,,,,,,,,,,,,3,4,2025-02-11_15h00.05.893,comp,2024.2.5,None,2025-02-11 15h00.16.268953 -0500,
111,111,0,catch,None,None,None,None,None,None,None,None,None,None,1,1.0942058563232422,None,,,,,0,0,0,0,0,111,111,126,334.94341921806335,,,,,,,,,,,,,,,,,,,,,,,,,,,,,,,,,,,,,,,,,,,,,,,,,,,,,,,,,,,,,,,,,,,,,,,,,,,,,,,,,159,166,113,77,70,120,2.1,2.11,-218,287,0,258,194,-253,334.928927898407,334.92900943756104,334.9321172237396,334.94341921806335,335.0898633003235,335.0898633003235,335.0898633003235,335.0898633003235,335.0898633003235,335.0898633003235,335.0898633003235,336.04381799697876,1,1.0942058563232422,None,,,,,,,,,,,,,,,,,,3,4,2025-02-11_15h00.05.893,comp,2024.2.5,None,2025-02-11 15h00.16.268953 -0500,
112,112,0,filler_square,None,None,None,None,None,None,None,None,None,None,3,4.792355537414551,None,,,,,0,0,0,0,0,112,112,171,336.0606017112732,,,,,,,,,,,,,,,,,,,,,,,,,,,,,,,,,,,,,,,,,,,,,,,,,,,,,,,,,,,,,,,,,,,,,,,,,,,,,,,,,64.89403790023157,64.89403790023157,57.00107893780434,60.28505858891172,63.81155440117843,63.38610310119982,2.1,2.11,-159,272,0,275,158,-288,336.04562163352966,336.04570031166077,336.04887080192566,336.0606017112732,336.2134299278259,336.2134299278259,336.2134299278259,336.2134299278259,336.2134299278259,336.2134299278259,336.2134299278259,340.8617296218872,3,4.792355537414551,None,,,,,,,,,,,,,,,,,,3,4,2025-02-11_15h00.05.893,comp,2024.2.5,None,2025-02-11 15h00.16.268953 -0500,
113,113,0,catch,None,None,None,None,None,None,None,None,None,None,1,1.3829233646392822,None,,,,,0,0,0,0,0,113,113,124,340.87768054008484,,,,,,,,,,,,,,,,,,,,,,,,,,,,,,,,,,,,,,,,,,,,,,,,,,,,,,,,,,,,,,,,,,,,,,,,,,,,,,,,,150,175,77,113,127,63,2.2,2.22,-240,267,0,-256,184,-251,340.8635890483856,340.86366629600525,340.8670165538788,340.87768054008484,341.02908515930176,341.02908515930176,341.02908515930176,341.02908515930176,341.02908515930176,341.02908515930176,341.02908515930176,342.2627053260803,1,1.3829233646392822,None,,,,,,,,,,,,,,,,,,3,4,2025-02-11_15h00.05.893,comp,2024.2.5,None,2025-02-11 15h00.16.268953 -0500,
114,114,0,filler_square,None,None,None,None,None,None,None,None,None,None,1,1.4049310684204102,None,,,,,0,0,0,0,0,114,114,178,342.2796399593353,,,,,,,,,,,,,,,,,,,,,,,,,,,,,,,,,,,,,,,,,,,,,,,,,,,,,,,,,,,,,,,,,,,,,,,,,,,,,,,,,168.97230155060973,168.97230155060973,166.2677807325432,81.90211500821246,123.55582517899803,137.6614489413547,2.1,2.12,-221,-269,0,-260,206,264,342.2648913860321,342.2650234699249,342.26901030540466,342.2796399593353,342.4274032115936,342.4274032115936,342.4274032115936,342.4274032115936,342.4274032115936,342.4274032115936,342.4274032115936,343.69607186317444,1,1.4049310684204102,None,,,,,,,,,,,,,,,,,,3,4,2025-02-11_15h00.05.893,comp,2024.2.5,None,2025-02-11 15h00.16.268953 -0500,
115,115,0,filler_square,None,None,None,None,None,None,None,None,None,None,2,1.1637680530548096,None,,,,,0,0,0,0,0,115,115,190,343.713009595871,,,,,,,,,,,,,,,,,,,,,,,,,,,,,,,,,,,,,,,,,,,,,,,,,,,,,,,,,,,,,,,,,,,,,,,,,,,,,,,,,87.14981019272541,70.24880502886559,96.60766310290609,96.60766310290609,94.52980303028437,74.19543570182094,2.2,2.21,-179,-257,0,269,181,272,343.6978499889374,343.6979253292084,343.7010898590088,343.713009595871,343.8650360107422,343.8650360107422,343.8650360107422,343.8650360107422,343.8650360107422,343.8650360107422,343.8650360107422,344.87957859039307,2,1.1637680530548096,None,,,,,,,,,,,,,,,,,,3,4,2025-02-11_15h00.05.893,comp,2024.2.5,None,2025-02-11 15h00.16.268953 -0500,
116,116,0,filler_random,None,None,None,None,None,None,None,None,None,None,1,2.035958766937256,None,,,,,0,0,0,0,0,116,116,152,344.8962574005127,,,,,,,,,,,,,,,,,,,,,,,,,,,,,,,,,,,,,,,,,,,,,,,,,,,,,,,,,,,,,,,,,,,,,,,,,,,,,,,,,154.53109054097425,98.67180249643893,70.83653192339693,155.39259497177,68.91470755000537,135.68355352301435,3.0,3.2,-223,-272,0,10,242,260,344.8813126087189,344.8814163208008,344.88527512550354,344.8962574005127,345.05349254608154,345.05349254608154,345.05349254608154,345.05349254608154,345.05349254608154,345.05349254608154,345.05349254608154,346.9454905986786,1,2.035958766937256,None,,,,,,,,,,,,,,,,,,3,4,2025-02-11_15h00.05.893,comp,2024.2.5,None,2025-02-11 15h00.16.268953 -0500,
117,117,0,critical,dhw,60.0,4.0,lower,55.0,55.0,133.0,57.0,57.0,133.0,3,2.1371994018554688,None,,,,,0,0,0,0,0,117,117,58,346.9632260799408,,,,,,,,,,,,,,,,,,,,,,,,,,,,,,,,,,,,,,,,,,,,,,,,,,,,,,,,,,,,,,,,,,,,,,,,,,,,,,,,,55.0,55.0,133.0,57.0,57.0,133.0,4.0,4.1,-152,-270,0,8,191,-277,346.94705152511597,346.94713139533997,346.9505424499512,346.9632260799408,347.12304759025574,347.12304759025574,347.12304759025574,347.12304759025574,347.12304759025574,347.12304759025574,347.12304759025574,349.10289883613586,3,2.1371994018554688,None,,,,,,,,,,,,,,,,,,3,4,2025-02-11_15h00.05.893,comp,2024.2.5,None,2025-02-11 15h00.16.268953 -0500,
118,118,0,critical,dhw,45.0,1.0,lower,65.0,65.0,133.0,57.0,57.0,133.0,2,2.131253957748413,None,,,,,0,0,0,0,0,118,118,48,349.1209514141083,,,,,,,,,,,,,,,,,,,,,,,,,,,,,,,,,,,,,,,,,,,,,,,,,,,,,,,,,,,,,,,,,,,,,,,,,,,,,,,,,65.0,65.0,133.0,57.0,57.0,133.0,1.0,1.1,-637,268,-480,289,-289,277,349.10453033447266,349.10461807250977,349.10789132118225,349.1209514141083,349.2648527622223,349.2648527622223,349.2648527622223,349.2648527622223,349.2648527622223,349.2648527622223,349.2648527622223,351.2653830051422,2,2.131253957748413,None,,,,,,,,,,,,,,,,,,3,4,2025-02-11_15h00.05.893,comp,2024.2.5,None,2025-02-11 15h00.16.268953 -0500,
119,119,0,critical,wdh,45.0,1.0,upper,125.0,200.0,117.0,117.0,200.0,125.0,1,1.3795506954193115,None,,,,,0,0,0,0,0,119,119,73,351.28122758865356,,,,,,,,,,,,,,,,,,,,,,,,,,,,,,,,,,,,,,,,,,,,,,,,,,,,,,,,,,,,,,,,,,,,,,,,,,,,,,,,,125.0,200.0,117.0,117.0,200.0,125.0,1.0,1.3,226,-272,480,-254,697,-288,351.2670352458954,351.26710987091064,351.2707257270813,351.28122758865356,351.43360805511475,351.43360805511475,351.43360805511475,351.43360805511475,351.43360805511475,351.43360805511475,351.43360805511475,352.66557812690735,1,1.3795506954193115,None,,,,,,,,,,,,,,,,,,3,4,2025-02-11_15h00.05.893,comp,2024.2.5,None,2025-02-11 15h00.16.268953 -0500,
120,120,0,catch,None,None,None,None,None,None,None,None,None,None,3,1.5542035102844238,None,,,,,0,0,0,0,0,120,120,123,352.68214201927185,,,,,,,,,,,,,,,,,,,,,,,,,,,,,,,,,,,,,,,,,,,,,,,,,,,,,,,,,,,,,,,,,,,,,,,,,,,,,,,,,107,83,84,106,164,161,3.0,3.1,-190,252,0,-20,230,-288,352.6677014827728,352.6677796840668,352.67144656181335,352.68214201927185,352.8292157649994,352.8292157649994,352.8292157649994,352.8292157649994,352.8292157649994,352.8292157649994,352.8292157649994,354.2502989768982,3,1.5542035102844238,None,,,,,,,,,,,,,,,,,,3,4,2025-02-11_15h00.05.893,comp,2024.2.5,None,2025-02-11 15h00.16.268953 -0500,
121,121,0,filler_random,None,None,None,None,None,None,None,None,None,None,1,1.4433574676513672,None,,,,,0,0,0,0,0,121,121,166,354.2656936645508,,,,,,,,,,,,,,,,,,,,,,,,,,,,,,,,,,,,,,,,,,,,,,,,,,,,,,,,,,,,,,,,,,,,,,,,,,,,,,,,,118.89792274706105,126.1534441878139,94.03142734876644,112.21402805846392,57.903367346885126,171.81359257339264,2.1,2.12,-215,-272,0,-259,238,254,354.2520360946655,354.25216126441956,354.25540256500244,354.2656936645508,354.4161756038666,354.4161756038666,354.4161756038666,354.4161756038666,354.4161756038666,354.4161756038666,354.4161756038666,355.7174937725067,1,1.4433574676513672,None,,,,,,,,,,,,,,,,,,3,4,2025-02-11_15h00.05.893,comp,2024.2.5,None,2025-02-11 15h00.16.268953 -0500,
122,122,0,critical,wdh,45.0,3.0,upper,125.0,200.0,117.0,117.0,200.0,125.0,1,2.869197130203247,None,,,,,0,0,0,0,0,122,122,75,355.7356195449829,,,,,,,,,,,,,,,,,,,,,,,,,,,,,,,,,,,,,,,,,,,,,,,,,,,,,,,,,,,,,,,,,,,,,,,,,,,,,,,,,125.0,200.0,117.0,117.0,200.0,125.0,3.0,3.1,-254,275,0,8,217,-255,355.71911096572876,355.71922302246094,355.7225196361542,355.7356195449829,355.87524247169495,355.87524247169495,355.87524247169495,355.87524247169495,355.87524247169495,355.87524247169495,355.87524247169495,358.60729908943176,1,2.869197130203247,None,,,,,,,,,,,,,,,,,,3,4,2025-02-11_15h00.05.893,comp,2024.2.5,None,2025-02-11 15h00.16.268953 -0500,
123,123,0,filler_random,None,None,None,None,None,None,None,None,None,None,1,1.9556386470794678,None,,,,,0,0,0,0,0,123,123,132,358.6254618167877,,,,,,,,,,,,,,,,,,,,,,,,,,,,,,,,,,,,,,,,,,,,,,,,,,,,,,,,,,,,,,,,,,,,,,,,,,,,,,,,,165.7006522635255,152.14528310535172,129.34114259033964,138.5176838682848,150.8203151714355,184.5508379158589,4.0,4.2,-241,5,0,-274,258,-15,358.60902643203735,358.6091547012329,358.6123821735382,358.6254618167877,358.7671480178833,358.7671480178833,358.7671480178833,358.7671480178833,358.7671480178833,358.7671480178833,358.7671480178833,360.58479046821594,1,1.9556386470794678,None,,,,,,,,,,,,,,,,,,3,4,2025-02-11_15h00.05.893,comp,2024.2.5,None,2025-02-11 15h00.16.268953 -0500,
124,124,0,filler_random,None,None,None,None,None,None,None,None,None,None,1,1.5472784042358398,None,,,,,0,0,0,0,0,124,124,160,360.60111927986145,,,,,,,,,,,,,,,,,,,,,,,,,,,,,,,,,,,,,,,,,,,,,,,,,,,,,,,,,,,,,,,,,,,,,,,,,,,,,,,,,160.1507945238969,128.4617181915482,139.84967291143838,136.07119398655124,140.35140927157946,80.82217734098782,3.0,3.2,-228,-268,0,-4,204,251,360.5866413116455,360.5867211818695,360.59024477005005,360.60111927986145,360.7542254924774,360.7542254924774,360.7542254924774,360.7542254924774,360.7542254924774,360.7542254924774,360.7542254924774,362.16721391677856,1,1.5472784042358398,None,,,,,,,,,,,,,,,,,,3,4,2025-02-11_15h00.05.893,comp,2024.2.5,None,2025-02-11 15h00.16.268953 -0500,
125,125,0,filler_random,None,None,None,None,None,None,None,None,None,None,3,2.3411788940429688,None,,,,,0,0,0,0,0,125,125,131,362.1834383010864,,,,,,,,,,,,,,,,,,,,,,,,,,,,,,,,,,,,,,,,,,,,,,,,,,,,,,,,,,,,,,,,,,,,,,,,,,,,,,,,,171.78099789363165,111.56286948574785,110.98262041924414,85.5969322754026,199.6159286954577,117.61740129167595,4.0,4.1,-195,-286,0,-16,198,-250,362.1689419746399,362.1690204143524,362.1721932888031,362.1834383010864,362.33380699157715,362.33380699157715,362.33380699157715,362.33380699157715,362.33380699157715,362.33380699157715,362.33380699157715,364.53603315353394,3,2.3411788940429688,None,,,,,,,,,,,,,,,,,,3,4,2025-02-11_15h00.05.893,comp,2024.2.5,None,2025-02-11 15h00.16.268953 -0500,
126,126,0,critical,hwd,45.0,1.0,lower,133.0,57.0,57.0,133.0,65.0,65.0,1,5.317142724990845,None,,,,,0,0,0,0,0,126,126,96,364.5519938468933,,,,,,,,,,,,,,,,,,,,,,,,,,,,,,,,,,,,,,,,,,,,,,,,,,,,,,,,,,,,,,,,,,,,,,,,,,,,,,,,,133.0,57.0,57.0,133.0,65.0,65.0,1.0,1.2,-191,17,0,-1,195,-6,364.53756165504456,364.5376434326172,364.5410089492798,364.5519938468933,364.69193267822266,364.69193267822266,364.69193267822266,364.69193267822266,364.69193267822266,364.69193267822266,364.69193267822266,369.871244430542,1,5.317142724990845,None,,,,,,,,,,,,,,,,,,3,4,2025-02-11_15h00.05.893,comp,2024.2.5,None,2025-02-11 15h00.16.268953 -0500,
127,127,0,filler_random,None,None,None,None,None,None,None,None,None,None,3,1.7801804542541504,None,,,,,0,0,0,0,0,127,127,153,369.88858795166016,,,,,,,,,,,,,,,,,,,,,,,,,,,,,,,,,,,,,,,,,,,,,,,,,,,,,,,,,,,,,,,,,,,,,,,,,,,,,,,,,58.79030200752474,85.97693649516896,84.2136135167048,130.36587670639864,99.43474728109052,185.5636810235549,4.0,4.2,-204,-10,0,-285,254,9,369.8730661869049,369.87314653396606,369.87721037864685,369.88858795166016,370.0424485206604,370.0424485206604,370.0424485206604,370.0424485206604,370.0424485206604,370.0424485206604,370.0424485206604,371.6708290576935,3,1.7801804542541504,None,,,,,,,,,,,,,,,,,,3,4,2025-02-11_15h00.05.893,comp,2024.2.5,None,2025-02-11 15h00.16.268953 -0500,
128,128,0,filler_random,None,None,None,None,None,None,None,None,None,None,1,1.4178600311279297,None,,,,,0,0,0,0,0,128,128,146,371.6906521320343,,,,,,,,,,,,,,,,,,,,,,,,,,,,,,,,,,,,,,,,,,,,,,,,,,,,,,,,,,,,,,,,,,,,,,,,,,,,,,,,,158.04456956839925,194.91492662598435,74.11809938221865,134.2760982290499,91.2242474483954,83.44178989681946,3.0,3.2,-261,-275,0,2,205,256,371.6725494861603,371.6726245880127,371.6756784915924,371.6906521320343,371.8382568359375,371.8382568359375,371.8382568359375,371.8382568359375,371.8382568359375,371.8382568359375,371.8382568359375,373.12063694000244,1,1.4178600311279297,None,,,,,,,,,,,,,,,,,,3,4,2025-02-11_15h00.05.893,comp,2024.2.5,None,2025-02-11 15h00.16.268953 -0500,
129,129,0,critical,dwh,45.0,3.0,upper,117.0,117.0,125.0,200.0,200.0,125.0,2,1.1249072551727295,None,,,,,0,0,0,0,0,129,129,63,373.13557267189026,,,,,,,,,,,,,,,,,,,,,,,,,,,,,,,,,,,,,,,,,,,,,,,,,,,,,,,,,,,,,,,,,,,,,,,,,,,,,,,,,117.0,117.0,125.0,200.0,200.0,125.0,3.0,3.2,-254,-266,0,4,258,254,373.12205719947815,373.12213253974915,373.12509083747864,373.13557267189026,373.2917683124542,373.2917683124542,373.2917683124542,373.2917683124542,373.2917683124542,373.2917683124542,373.2917683124542,374.2734727859497,2,1.1249072551727295,None,,,,,,,,,,,,,,,,,,3,4,2025-02-11_15h00.05.893,comp,2024.2.5,None,2025-02-11 15h00.16.268953 -0500,
130,130,0,critical,dwh,45.0,4.0,upper,117.0,117.0,125.0,200.0,200.0,125.0,2,1.2636375427246094,None,,,,,0,0,0,0,0,130,130,65,374.29359674453735,,,,,,,,,,,,,,,,,,,,,,,,,,,,,,,,,,,,,,,,,,,,,,,,,,,,,,,,,,,,,,,,,,,,,,,,,,,,,,,,,117.0,117.0,125.0,200.0,200.0,125.0,4.0,4.2,-254,-3,0,-253,258,4,374.2749342918396,374.27501225471497,374.27806282043457,374.29359674453735,374.4257080554962,374.4257080554962,374.4257080554962,374.4257080554962,374.4257080554962,374.4257080554962,374.4257080554962,375.5616157054901,2,1.2636375427246094,None,,,,,,,,,,,,,,,,,,3,4,2025-02-11_15h00.05.893,comp,2024.2.5,None,2025-02-11 15h00.16.268953 -0500,
131,131,0,filler_random,None,None,None,None,None,None,None,None,None,None,1,0.9713058471679688,None,,,,,0,0,0,0,0,131,131,155,375.5778694152832,,,,,,,,,,,,,,,,,,,,,,,,,,,,,,,,,,,,,,,,,,,,,,,,,,,,,,,,,,,,,,,,,,,,,,,,,,,,,,,,,165.50356171219926,195.78655068563748,90.7994152133875,135.4251657915185,184.13524551113474,80.03788443057488,2.2,2.22,-262,271,0,-284,204,-275,375.5633044242859,375.5634217262268,375.56638264656067,375.5778694152832,375.72225522994995,375.72225522994995,375.72225522994995,375.72225522994995,375.72225522994995,375.72225522994995,375.72225522994995,376.55826902389526,1,0.9713058471679688,None,,,,,,,,,,,,,,,,,,3,4,2025-02-11_15h00.05.893,comp,2024.2.5,None,2025-02-11 15h00.16.268953 -0500,
132,132,0,critical,hwd,60.0,3.0,upper,200.0,125.0,125.0,200.0,100.0,100.0,2,1.3350310325622559,None,,,,,0,0,0,0,0,132,132,105,376.5737318992615,,,,,,,,,,,,,,,,,,,,,,,,,,,,,,,,,,,,,,,,,,,,,,,,,,,,,,,,,,,,,,,,,,,,,,,,,,,,,,,,,200.0,125.0,125.0,200.0,100.0,100.0,3.0,3.2,-258,-264,0,-17,246,279,376.55988597869873,376.5599627494812,376.5631275177002,376.5737318992615,376.7294051647186,376.7294051647186,376.7294051647186,376.7294051647186,376.7294051647186,376.7294051647186,376.7294051647186,377.91097807884216,2,1.3350310325622559,None,,,,,,,,,,,,,,,,,,3,4,2025-02-11_15h00.05.893,comp,2024.2.5,None,2025-02-11 15h00.16.268953 -0500,
133,133,0,filler_random,None,None,None,None,None,None,None,None,None,None,2,1.2465057373046875,None,,,,,0,0,0,0,0,133,133,168,377.92688822746277,,,,,,,,,,,,,,,,,,,,,,,,,,,,,,,,,,,,,,,,,,,,,,,,,,,,,,,,,,,,,,,,,,,,,,,,,,,,,,,,,110.39474091339443,189.76181528385345,193.26214060027047,183.68188852864586,143.73426314621884,183.93156738326476,2.1,2.11,-283,283,0,280,280,-288,377.91276264190674,377.9128918647766,377.9161756038666,377.92688822746277,378.0738081932068,378.0738081932068,378.0738081932068,378.0738081932068,378.0738081932068,378.0738081932068,378.0738081932068,379.18098616600037,2,1.2465057373046875,None,,,,,,,,,,,,,,,,,,3,4,2025-02-11_15h00.05.893,comp,2024.2.5,None,2025-02-11 15h00.16.268953 -0500,
134,134,0,critical,dhw,60.0,4.0,upper,100.0,100.0,200.0,125.0,125.0,200.0,3,1.440769910812378,None,,,,,0,0,0,0,0,134,134,59,379.19613575935364,,,,,,,,,,,,,,,,,,,,,,,,,,,,,,,,,,,,,,,,,,,,,,,,,,,,,,,,,,,,,,,,,,,,,,,,,,,,,,,,,100.0,100.0,200.0,125.0,125.0,200.0,4.0,4.1,-208,-284,0,-9,258,-264,379.182421207428,379.18249917030334,379.18537521362305,379.19613575935364,379.3406550884247,379.3406550884247,379.3406550884247,379.3406550884247,379.3406550884247,379.3406550884247,379.3406550884247,380.64025831222534,3,1.440769910812378,None,,,,,,,,,,,,,,,,,,3,4,2025-02-11_15h00.05.893,comp,2024.2.5,None,2025-02-11 15h00.16.268953 -0500,
135,135,0,critical,hwd,60.0,4.0,lower,133.0,57.0,57.0,133.0,55.0,55.0,2,2.837165355682373,None,,,,,0,0,0,0,0,135,135,106,380.6555917263031,,,,,,,,,,,,,,,,,,,,,,,,,,,,,,,,,,,,,,,,,,,,,,,,,,,,,,,,,,,,,,,,,,,,,,,,,,,,,,,,,133.0,57.0,57.0,133.0,55.0,55.0,4.0,4.2,-191,-11,0,-285,190,5,380.64178252220154,380.6418616771698,380.64494919776917,380.6555917263031,380.8172245025635,380.8172245025635,380.8172245025635,380.8172245025635,380.8172245025635,380.8172245025635,380.8172245025635,383.50995445251465,2,2.837165355682373,None,,,,,,,,,,,,,,,,,,3,4,2025-02-11_15h00.05.893,comp,2024.2.5,None,2025-02-11 15h00.16.268953 -0500,
136,136,0,critical,dhw,60.0,3.0,lower,55.0,55.0,133.0,57.0,57.0,133.0,3,2.7990353107452393,None,,,,,0,0,0,0,0,136,136,56,383.5257511138916,,,,,,,,,,,,,,,,,,,,,,,,,,,,,,,,,,,,,,,,,,,,,,,,,,,,,,,,,,,,,,,,,,,,,,,,,,,,,,,,,55.0,55.0,133.0,57.0,57.0,133.0,3.0,3.2,-152,-263,0,-7,191,263,383.51165556907654,383.5117332935333,383.51533007621765,383.5257511138916,383.6758098602295,383.6758098602295,383.6758098602295,383.6758098602295,383.6758098602295,383.6758098602295,383.6758098602295,386.3359956741333,3,2.7990353107452393,None,,,,,,,,,,,,,,,,,,3,4,2025-02-11_15h00.05.893,comp,2024.2.5,None,2025-02-11 15h00.16.268953 -0500,
137,137,0,critical,hdw,60.0,3.0,lower,133.0,57.0,55.0,55.0,57.0,133.0,1,1.9952054023742676,None,,,,,0,0,0,0,0,137,137,116,386.35338854789734,,,,,,,,,,,,,,,,,,,,,,,,,,,,,,,,,,,,,,,,,,,,,,,,,,,,,,,,,,,,,,,,,,,,,,,,,,,,,,,,,133.0,57.0,55.0,55.0,57.0,133.0,3.0,3.1,-152,284,0,-5,190,-270,386.33743143081665,386.3375096321106,386.3403890132904,386.35338854789734,386.49366521835327,386.49366521835327,386.49366521835327,386.49366521835327,386.49366521835327,386.49366521835327,386.49366521835327,388.3622930049896,1,1.9952054023742676,None,,,,,,,,,,,,,,,,,,3,4,2025-02-11_15h00.05.893,comp,2024.2.5,None,2025-02-11 15h00.16.268953 -0500,
138,138,0,filler_square,None,None,None,None,None,None,None,None,None,None,1,2.521271228790283,None,,,,,0,0,0,0,0,138,138,198,388.3809804916382,,,,,,,,,,,,,,,,,,,,,,,,,,,,,,,,,,,,,,,,,,,,,,,,,,,,,,,,,,,,,,,,,,,,,,,,,,,,,,,,,88.45402027346532,88.45402027346532,77.7025986647918,76.2692729513928,58.01807237278532,88.13081645582407,3.0,3.2,-178,-276,0,16,178,260,388.3641629219055,388.3642382621765,388.36796164512634,388.3809804916382,388.5272116661072,388.5272116661072,388.5272116661072,388.5272116661072,388.5272116661072,388.5272116661072,388.5272116661072,390.91015005111694,1,2.521271228790283,None,,,,,,,,,,,,,,,,,,3,4,2025-02-11_15h00.05.893,comp,2024.2.5,None,2025-02-11 15h00.16.268953 -0500,
139,139,0,critical,dwh,45.0,1.0,lower,65.0,65.0,57.0,133.0,133.0,57.0,2,1.4633615016937256,None,,,,,0,0,0,0,0,139,139,60,390.92607069015503,,,,,,,,,,,,,,,,,,,,,,,,,,,,,,,,,,,,,,,,,,,,,,,,,,,,,,,,,,,,,,,,,,,,,,,,,,,,,,,,,65.0,65.0,57.0,133.0,133.0,57.0,1.0,1.1,-675,275,-480,281,-289,267,390.91172456741333,390.91180658340454,390.9148759841919,390.92607069015503,391.0739085674286,391.0739085674286,391.0739085674286,391.0739085674286,391.0739085674286,391.0739085674286,391.0739085674286,392.3954875469208,2,1.4633615016937256,None,,,,,,,,,,,,,,,,,,3,4,2025-02-11_15h00.05.893,comp,2024.2.5,None,2025-02-11 15h00.16.268953 -0500,
140,140,0,critical,dhw,60.0,1.0,upper,100.0,100.0,200.0,125.0,125.0,200.0,3,1.6335468292236328,None,,,,,0,0,0,0,0,140,140,55,392.41139936447144,,,,,,,,,,,,,,,,,,,,,,,,,,,,,,,,,,,,,,,,,,,,,,,,,,,,,,,,,,,,,,,,,,,,,,,,,,,,,,,,,100.0,100.0,200.0,125.0,125.0,200.0,1.0,1.2,-208,-8,0,5,258,13,392.3970642089844,392.3971426486969,392.4006209373474,392.41139936447144,392.5631091594696,392.5631091594696,392.5631091594696,392.5631091594696,392.5631091594696,392.5631091594696,392.5631091594696,394.04691076278687,3,1.6335468292236328,None,,,,,,,,,,,,,,,,,,3,4,2025-02-11_15h00.05.893,comp,2024.2.5,None,2025-02-11 15h00.16.268953 -0500,
141,141,0,filler_random,None,None,None,None,None,None,None,None,None,None,2,0.9004147052764893,None,,,,,0,0,0,0,0,141,141,159,394.06442880630493,,,,,,,,,,,,,,,,,,,,,,,,,,,,,,,,,,,,,,,,,,,,,,,,,,,,,,,,,,,,,,,,,,,,,,,,,,,,,,,,,88.96266254130148,106.16621151550422,179.49619812856062,193.79297452005818,120.0558253930293,63.7869129522845,1.0,1.1,-726,266,-480,259,-255,275,394.0488588809967,394.04893922805786,394.0521903038025,394.06442880630493,394.211492061615,394.211492061615,394.211492061615,394.211492061615,394.211492061615,394.211492061615,394.211492061615,394.9799165725708,2,0.9004147052764893,None,,,,,,,,,,,,,,,,,,3,4,2025-02-11_15h00.05.893,comp,2024.2.5,None,2025-02-11 15h00.16.268953 -0500,
142,142,0,critical,whd,60.0,2.1,lower,57.0,133.0,133.0,57.0,55.0,55.0,1,2.287238836288452,None,,,,,0,0,0,0,0,142,142,14,394.9979693889618,,,,,,,,,,,,,,,,,,,,,,,,,,,,,,,,,,,,,,,,,,,,,,,,,,,,,,,,,,,,,,,,,,,,,,,,,,,,,,,,,57.0,133.0,133.0,57.0,55.0,55.0,2.1,2.12,-191,-264,0,-285,152,251,394.98159980773926,394.98167872428894,394.98511266708374,394.9979693889618,395.1467881202698,395.1467881202698,395.1467881202698,395.1467881202698,395.1467881202698,395.1467881202698,395.1467881202698,397.2979533672333,1,2.287238836288452,None,,,,,,,,,,,,,,,,,,3,4,2025-02-11_15h00.05.893,comp,2024.2.5,None,2025-02-11 15h00.16.268953 -0500,
143,143,0,filler_square,None,None,None,None,None,None,None,None,None,None,1,1.474977731704712,None,,,,,0,0,0,0,0,143,143,194,397.3141875267029,,,,,,,,,,,,,,,,,,,,,,,,,,,,,,,,,,,,,,,,,,,,,,,,,,,,,,,,,,,,,,,,,,,,,,,,,,,,,,,,,103.74459404463445,103.74459404463445,79.03268350797376,79.3667896972719,81.87954839479795,69.51286265642248,2.1,2.12,-188,-269,0,-276,170,263,397.30000352859497,397.3001308441162,397.30370259284973,397.3141875267029,397.4615111351013,397.4615111351013,397.4615111351013,397.4615111351013,397.4615111351013,397.4615111351013,397.4615111351013,398.79430747032166,1,1.474977731704712,None,,,,,,,,,,,,,,,,,,3,4,2025-02-11_15h00.05.893,comp,2024.2.5,None,2025-02-11 15h00.16.268953 -0500,
