thisN,thisTrialN,thisRepN,effect,order,distance,config,diag,h_1,w_1,h_2,w_2,h_3,w_3,rect_choice.keys,rect_choice.rt,rect_choice.duration,instructions_loop.thisRepN,instructions_loop.thisTrialN,instructions_loop.thisN,instructions_loop.thisIndex,blocks.thisRepN,blocks.thisTrialN,blocks.thisN,blocks.thisIndex,trials.thisRepN,trials.thisTrialN,trials.thisN,trials.thisIndex,thisRow.t,notes,consent.started,agree_button.started,decline_button.started,consent_img.started,mouse.started,consent.stopped,agree_button.numClicks,agree_button.timesOn,agree_button.timesOff,decline_button.numClicks,decline_button.timesOn,decline_button.timesOff,mouse.x,mouse.y,mouse.leftButton,mouse.midButton,mouse.rightButton,mouse.time,mouse.clicked_name,exp_params.started,exp_params.stopped,welcome.started,welcome_text.started,welcome.stopped,instructions_1.started,instructions_1_text_1.started,instructions_1_text_2.started,key_resp.started,instructions_1.stopped,instructions_loop.key_resp.keys,instructions_loop.key_resp.rt,instructions_loop.key_resp.duration,instructions_2.started,instructions_2_text_1.started,instructions_2_text_2.started,key_resp_2.started,instructions_2.stopped,instructions_loop.key_resp_2.keys,instructions_loop.key_resp_2.rt,instructions_loop.key_resp_2.duration,instructions_3.started,instructions_3_text_1.started,r1_instr3.started,r2_instr3.started,r3_instr3.started,r1_instr3_label.started,r2_instr3_label.started,r3_instr3_label.started,instructions_3_text_3.started,instructions_3_text_4.started,key_resp_3.started,instructions_3.stopped,instructions_loop.key_resp_3.keys,instructions_loop.key_resp_3.rt,instructions_loop.key_resp_3.duration,instructions_4.started,instructions_4_text_1.started,instructions_4_text_3.started,instructions_4_text_2.started,key_resp_4.started,instructions_4.stopped,instructions_loop.key_resp_4.keys,instructions_loop.key_resp_4.rt,instructions_loop.key_resp_4.duration,instructions_5.started,instructions_5_text_1.started,instructions_5_text_2.started,key_resp_5.started,instructions_5.stopped,instructions_loop.key_resp_5.keys,instructions_loop.key_resp_5.rt,instructions_loop.key_resp_5.duration,start_exp.started,start_exp_text.started,key_resp_6.started,start_exp.stopped,key_resp_6.keys,key_resp_6.rt,key_resp_6.duration,h_1_tmp,w_1_tmp,h_2_tmp,w_2_tmp,h_3_tmp,w_3_tmp,config_tmp,config_tmp_1,r_1_x,r_1_y,r_2_x,r_2_y,r_3_x,r_3_y,pre_trial.started,pre_trial.stopped,choice_trial.started,rect_choice.started,r_1.started,r_2.started,r_3.started,r_1_label.started,r_2_label.started,r_3_label.started,prompt.started,choice_trial.stopped,trials.rect_choice.keys,trials.rect_choice.rt,trials.rect_choice.duration,end_block.started,end_block_text.started,end_block.stopped,end.started,end_text.started,key_resp_7.started,end.stopped,key_resp_7.keys,key_resp_7.rt,key_resp_7.duration,debriefing.started,debrief_form.started,end_debrief.started,debriefing.stopped,end_debrief.keys,end_debrief.rt,end_debrief.duration,participant,computer,date,expName,psychopyVersion,frameRate,expStart,
,,,,,,,,,,,,,,,,,,,,,,,,,,,,,,,0.014770746231079102,0.03614211082458496,0.03614211082458496,0.03614211082458496,0.014579296112060547,30.602947235107422,1,[30.564404249191284],[30.564425230026245],0,,,[-122.0],[-501.0],[1],[0],[0],[30.58773684501648],['agree_button'],,,,,,,,,,,,,,,,,,,,,,,,,,,,,,,,,,,,,,,,,,,,,,,,,,,,,,,,,,,,,,,,,,,,,,,,,,,,,,,,,,,,,,,,,,,,,,,,,,,,,,,,,,,4,2,2025-02-11_15h04.31.313,comp,2024.2.5,61.29290301839092,2025-02-11 15h04.38.444370 -0500,
,,,,,,,,,,,,,,,,,,,,,,,,,,,,,,,,,,,,,,,,,,,,,,,,,,30.603450298309326,30.60355043411255,,,,,,,,,,,,,,,,,,,,,,,,,,,,,,,,,,,,,,,,,,,,,,,,,,,,,,,,,,,,,,,,,,,,,,,,,,,,,,,,,,,,,,,,,,,,,,,,,,,,,,,,,4,2,2025-02-11_15h04.31.313,comp,2024.2.5,61.29290301839092,2025-02-11 15h04.38.444370 -0500,
,,,,,,,,,,,,,,,,,,,,,,,,,,,,,,,,,,,,,,,,,,,,,,,,,,,,30.60362434387207,30.61743140220642,32.61025547981262,,,,,,,,,,,,,,,,,,,,,,,,,,,,,,,,,,,,,,,,,,,,,,,,,,,,,,,,,,,,,,,,,,,,,,,,,,,,,,,,,,,,,,,,,,,,,,,,,,,,,,4,2,2025-02-11_15h04.31.313,comp,2024.2.5,61.29290301839092,2025-02-11 15h04.38.444370 -0500,
0,0,0,,,,,,,,,,,,,,,0,0,0,0,,,,,,,,,32.63579201698303,,,,,,,,,,,,,,,,,,,,,,,,,,32.61117672920227,32.63579201698303,32.63579201698303,34.10826230049133,36.44553089141846,space,2.319790840148926,None,36.44568085670471,36.46443748474121,36.46443748474121,37.96084260940552,47.53273367881775,space,9.563659429550171,None,47.532891511917114,47.566115617752075,47.566115617752075,47.566115617752075,47.566115617752075,47.566115617752075,47.566115617752075,47.566115617752075,47.566115617752075,47.566115617752075,49.04708743095398,53.07093167304993,space,4.021046876907349,None,53.071152448654175,53.089704751968384,53.089704751968384,53.089704751968384,54.582854986190796,57.63568139076233,space,3.0366146564483643,None,57.635844230651855,57.65442705154419,57.65442705154419,59.149643421173096,60.48269724845886,space,1.32645845413208,None,60.482895374298096,60.500107288360596,60.500107288360596,61.95933222770691,space,1.4552547931671143,None,,,,,,,,,,,,,,,,,,,,,,,,,,,,,,,,,,,,,,,,,,,,,,,4,2,2025-02-11_15h04.31.313,comp,2024.2.5,61.29290301839092,2025-02-11 15h04.38.444370 -0500,
0,0,0,critical,wdh,60.0,4.0,lower,57.0,133.0,55.0,55.0,133.0,57.0,1,9.469295263290405,None,,,,,0,0,0,0,0,0,0,82,62.03725051879883,,,,,,,,,,,,,,,,,,,,,,,,,,,,,,,,,,,,,,,,,,,,,,,,,,,,,,,,,,,,,,,,,,,,,,,,,,,,,,,,,57.0,133.0,55.0,55.0,133.0,57.0,4.0,4.1,-190,-257,0,4,152,-268,62.020888328552246,62.02092170715332,62.02213215827942,62.03725051879883,62.19398522377014,62.19398522377014,62.19398522377014,62.19398522377014,62.19398522377014,62.19398522377014,62.19398522377014,71.52029633522034,1,9.469295263290405,None,,,,,,,,,,,,,,,,,,4,2,2025-02-11_15h04.31.313,comp,2024.2.5,61.29290301839092,2025-02-11 15h04.38.444370 -0500,
1,1,0,critical,dwh,60.0,2.1,upper,100.0,100.0,125.0,200.0,200.0,125.0,2,5.139427185058594,None,,,,,0,0,0,0,0,1,1,7,71.5357506275177,,,,,,,,,,,,,,,,,,,,,,,,,,,,,,,,,,,,,,,,,,,,,,,,,,,,,,,,,,,,,,,,,,,,,,,,,,,,,,,,,100.0,100.0,125.0,200.0,200.0,125.0,2.1,2.12,-246,-283,0,-282,258,288,71.52153205871582,71.52158880233765,71.52412104606628,71.5357506275177,71.67595481872559,71.67595481872559,71.67595481872559,71.67595481872559,71.67595481872559,71.67595481872559,71.67595481872559,76.69022154808044,2,5.139427185058594,None,,,,,,,,,,,,,,,,,,4,2,2025-02-11_15h04.31.313,comp,2024.2.5,61.29290301839092,2025-02-11 15h04.38.444370 -0500,
2,2,0,critical,dwh,60.0,2.1,lower,55.0,55.0,57.0,133.0,133.0,57.0,2,8.40050196647644,None,,,,,0,0,0,0,0,2,2,30,76.70622229576111,,,,,,,,,,,,,,,,,,,,,,,,,,,,,,,,,,,,,,,,,,,,,,,,,,,,,,,,,,,,,,,,,,,,,,,,,,,,,,,,,55.0,55.0,57.0,133.0,133.0,57.0,2.1,2.12,-190,-271,0,-257,191,278,76.69180607795715,76.69188404083252,76.69502067565918,76.70622229576111,76.8559262752533,76.8559262752533,76.8559262752533,76.8559262752533,76.8559262752533,76.8559262752533,76.8559262752533,85.11043787002563,2,8.40050196647644,None,,,,,,,,,,,,,,,,,,4,2,2025-02-11_15h04.31.313,comp,2024.2.5,61.29290301839092,2025-02-11 15h04.38.444370 -0500,
3,3,0,filler_random,None,None,None,None,None,None,None,None,None,None,3,8.060049533843994,None,,,,,0,0,0,0,0,3,3,134,85.12712526321411,,,,,,,,,,,,,,,,,,,,,,,,,,,,,,,,,,,,,,,,,,,,,,,,,,,,,,,,,,,,,,,,,,,,,,,,,,,,,,,,,76.8550817042952,108.91488027482525,63.325152017539516,119.8674017434787,71.14525885696071,123.90393642055928,1.0,1.2,-210,14,0,-10,218,-3,85.11241507530212,85.11249470710754,85.11622381210327,85.12712526321411,85.27705097198486,85.27705097198486,85.27705097198486,85.27705097198486,85.27705097198486,85.27705097198486,85.27705097198486,93.19542574882507,3,8.060049533843994,None,,,,,,,,,,,,,,,,,,4,2,2025-02-11_15h04.31.313,comp,2024.2.5,61.29290301839092,2025-02-11 15h04.38.444370 -0500,
4,4,0,critical,wdh,60.0,2.1,upper,125.0,200.0,100.0,100.0,200.0,125.0,1,5.735576629638672,None,,,,,0,0,0,0,0,4,4,35,93.21160888671875,,,,,,,,,,,,,,,,,,,,,,,,,,,,,,,,,,,,,,,,,,,,,,,,,,,,,,,,,,,,,,,,,,,,,,,,,,,,,,,,,125.0,200.0,100.0,100.0,200.0,125.0,2.1,2.11,-246,278,0,262,208,-278,93.1969313621521,93.19705295562744,93.20067095756531,93.21160888671875,93.36218428611755,93.36218428611755,93.36218428611755,93.36218428611755,93.36218428611755,93.36218428611755,93.36218428611755,98.94950675964355,1,5.735576629638672,None,,,,,,,,,,,,,,,,,,4,2,2025-02-11_15h04.31.313,comp,2024.2.5,61.29290301839092,2025-02-11 15h04.38.444370 -0500,
5,5,0,filler_random,None,None,None,None,None,None,None,None,None,None,2,3.477907419204712,None,,,,,0,0,0,0,0,5,5,138,98.96528816223145,,,,,,,,,,,,,,,,,,,,,,,,,,,,,,,,,,,,,,,,,,,,,,,,,,,,,,,,,,,,,,,,,,,,,,,,,,,,,,,,,75.47160340722306,151.1288601342273,173.3745937511453,195.24678913431183,120.89859004669103,187.0396431345972,4.0,4.2,-269,14,0,-263,287,-1,98.95124793052673,98.951331615448,98.95452570915222,98.96528816223145,99.1139612197876,99.1139612197876,99.1139612197876,99.1139612197876,99.1139612197876,99.1139612197876,99.1139612197876,102.44987535476685,2,3.477907419204712,None,,,,,,,,,,,,,,,,,,4,2,2025-02-11_15h04.31.313,comp,2024.2.5,61.29290301839092,2025-02-11 15h04.38.444370 -0500,
6,6,0,critical,dwh,60.0,3.0,lower,55.0,55.0,57.0,133.0,133.0,57.0,2,4.175736665725708,None,,,,,0,0,0,0,0,6,6,68,102.46662378311157,,,,,,,,,,,,,,,,,,,,,,,,,,,,,,,,,,,,,,,,,,,,,,,,,,,,,,,,,,,,,,,,,,,,,,,,,,,,,,,,,55.0,55.0,57.0,133.0,133.0,57.0,3.0,3.1,-190,260,0,9,191,-275,102.4516544342041,102.4517388343811,102.45580506324768,102.46662378311157,102.60291242599487,102.60291242599487,102.60291242599487,102.60291242599487,102.60291242599487,102.60291242599487,102.60291242599487,106.64514589309692,2,4.175736665725708,None,,,,,,,,,,,,,,,,,,4,2,2025-02-11_15h04.31.313,comp,2024.2.5,61.29290301839092,2025-02-11 15h04.38.444370 -0500,
7,7,0,critical,hwd,45.0,2.1,lower,133.0,57.0,57.0,133.0,65.0,65.0,2,3.2328133583068848,None,,,,,0,0,0,0,0,7,7,16,106.6651656627655,,,,,,,,,,,,,,,,,,,,,,,,,,,,,,,,,,,,,,,,,,,,,,,,,,,,,,,,,,,,,,,,,,,,,,,,,,,,,,,,,133.0,57.0,57.0,133.0,65.0,65.0,2.1,2.11,-191,264,0,289,195,-262,106.64679598808289,106.64688062667847,106.65035653114319,106.6651656627655,106.79959845542908,106.79959845542908,106.79959845542908,106.79959845542908,106.79959845542908,106.79959845542908,106.79959845542908,109.9000985622406,2,3.2328133583068848,None,,,,,,,,,,,,,,,,,,4,2,2025-02-11_15h04.31.313,comp,2024.2.5,61.29290301839092,2025-02-11 15h04.38.444370 -0500,
8,8,0,critical,dhw,45.0,2.1,lower,65.0,65.0,133.0,57.0,57.0,133.0,3,2.582681894302368,None,,,,,0,0,0,0,0,8,8,24,109.91609168052673,,,,,,,,,,,,,,,,,,,,,,,,,,,,,,,,,,,,,,,,,,,,,,,,,,,,,,,,,,,,,,,,,,,,,,,,,,,,,,,,,65.0,65.0,133.0,57.0,57.0,133.0,2.1,2.11,-157,289,0,274,191,-260,109.9017231464386,109.90180444717407,109.905348777771,109.91609168052673,110.06749963760376,110.06749963760376,110.06749963760376,110.06749963760376,110.06749963760376,110.06749963760376,110.06749963760376,112.50252938270569,3,2.582681894302368,None,,,,,,,,,,,,,,,,,,4,2,2025-02-11_15h04.31.313,comp,2024.2.5,61.29290301839092,2025-02-11 15h04.38.444370 -0500,
9,9,0,critical,dhw,60.0,3.0,lower,55.0,55.0,133.0,57.0,57.0,133.0,3,4.16397762298584,None,,,,,0,0,0,0,0,9,9,56,112.51833009719849,,,,,,,,,,,,,,,,,,,,,,,,,,,,,,,,,,,,,,,,,,,,,,,,,,,,,,,,,,,,,,,,,,,,,,,,,,,,,,,,,55.0,55.0,133.0,57.0,57.0,133.0,3.0,3.2,-152,-263,0,4,191,267,112.50406694412231,112.50416946411133,112.50753331184387,112.51833009719849,112.6659631729126,112.6659631729126,112.6659631729126,112.6659631729126,112.6659631729126,112.6659631729126,112.6659631729126,116.68439555168152,3,4.16397762298584,None,,,,,,,,,,,,,,,,,,4,2,2025-02-11_15h04.31.313,comp,2024.2.5,61.29290301839092,2025-02-11 15h04.38.444370 -0500,
10,10,0,filler_square,None,None,None,None,None,None,None,None,None,None,2,1.6131596565246582,None,,,,,0,0,0,0,0,10,10,176,116.70149445533752,,,,,,,,,,,,,,,,,,,,,,,,,,,,,,,,,,,,,,,,,,,,,,,,,,,,,,,,,,,,,,,,,,,,,,,,,,,,,,,,,64.63098583943454,126.7929672016953,150.9474258368617,150.9474258368617,87.07992806841223,73.1392219213742,2.2,2.21,-235,-257,0,272,208,266,116.68623805046082,116.68631863594055,116.68959784507751,116.70149445533752,116.8414900302887,116.8414900302887,116.8414900302887,116.8414900302887,116.8414900302887,116.8414900302887,116.8414900302887,118.31976866722107,2,1.6131596565246582,None,,,,,,,,,,,,,,,,,,4,2,2025-02-11_15h04.31.313,comp,2024.2.5,61.29290301839092,2025-02-11 15h04.38.444370 -0500,
11,11,0,filler_square,None,None,None,None,None,None,None,None,None,None,1,3.097299337387085,None,,,,,0,0,0,0,0,11,11,178,118.33639883995056,,,,,,,,,,,,,,,,,,,,,,,,,,,,,,,,,,,,,,,,,,,,,,,,,,,,,,,,,,,,,,,,,,,,,,,,,,,,,,,,,156.7537740847591,156.7537740847591,154.54166346842143,64.34423890821073,63.79952202119138,147.42726412012584,1.0,1.2,-207,15,0,-11,202,-3,118.32179236412048,118.32187342643738,118.32562160491943,118.33639883995056,118.48823380470276,118.48823380470276,118.48823380470276,118.48823380470276,118.48823380470276,118.48823380470276,118.48823380470276,121.43745970726013,1,3.097299337387085,None,,,,,,,,,,,,,,,,,,4,2,2025-02-11_15h04.31.313,comp,2024.2.5,61.29290301839092,2025-02-11 15h04.38.444370 -0500,
12,12,0,filler_random,None,None,None,None,None,None,None,None,None,None,3,4.580183506011963,None,,,,,0,0,0,0,0,12,12,130,121.45418405532837,,,,,,,,,,,,,,,,,,,,,,,,,,,,,,,,,,,,,,,,,,,,,,,,,,,,,,,,,,,,,,,,,,,,,,,,,,,,,,,,,157.8495974238204,58.831730298878114,90.67430152517258,162.87713449340228,139.61491283354974,151.87909178417033,2.2,2.22,-207,258,0,-268,253,-268,121.43945503234863,121.43954181671143,121.44324851036072,121.45418405532837,121.60469818115234,121.60469818115234,121.60469818115234,121.60469818115234,121.60469818115234,121.60469818115234,121.60469818115234,126.03869009017944,3,4.580183506011963,None,,,,,,,,,,,,,,,,,,4,2,2025-02-11_15h04.31.313,comp,2024.2.5,61.29290301839092,2025-02-11 15h04.38.444370 -0500,
13,13,0,critical,hdw,60.0,2.1,lower,133.0,57.0,55.0,55.0,57.0,133.0,1,4.281088829040527,None,,,,,0,0,0,0,0,13,13,46,126.05690479278564,,,,,,,,,,,,,,,,,,,,,,,,,,,,,,,,,,,,,,,,,,,,,,,,,,,,,,,,,,,,,,,,,,,,,,,,,,,,,,,,,133.0,57.0,55.0,55.0,57.0,133.0,2.1,2.11,-152,253,0,290,190,-258,126.04026699066162,126.04034423828125,126.04341077804565,126.05690479278564,126.20528388023376,126.20528388023376,126.20528388023376,126.20528388023376,126.20528388023376,126.20528388023376,126.20528388023376,130.3557357788086,1,4.281088829040527,None,,,,,,,,,,,,,,,,,,4,2,2025-02-11_15h04.31.313,comp,2024.2.5,61.29290301839092,2025-02-11 15h04.38.444370 -0500,
14,14,0,filler_random,None,None,None,None,None,None,None,None,None,None,2,12.750599145889282,None,,,,,0,0,0,0,0,14,14,137,130.37155985832214,,,,,,,,,,,,,,,,,,,,,,,,,,,,,,,,,,,,,,,,,,,,,,,,,,,,,,,,,,,,,,,,,,,,,,,,,,,,,,,,,197.06814421798217,107.37074471139891,138.99583680239718,158.94614711363397,57.53779390891324,99.10036043731725,2.1,2.12,-229,-250,0,-272,225,255,130.35754585266113,130.35767436027527,130.36119198799133,130.37155985832214,130.52293038368225,130.52293038368225,130.52293038368225,130.52293038368225,130.52293038368225,130.52293038368225,130.52293038368225,143.12654328346252,2,12.750599145889282,None,,,,,,,,,,,,,,,,,,4,2,2025-02-11_15h04.31.313,comp,2024.2.5,61.29290301839092,2025-02-11 15h04.38.444370 -0500,
15,15,0,critical,dwh,60.0,2.1,lower,55.0,55.0,57.0,133.0,133.0,57.0,2,6.572943925857544,None,,,,,0,0,0,0,0,15,15,6,143.1411156654358,,,,,,,,,,,,,,,,,,,,,,,,,,,,,,,,,,,,,,,,,,,,,,,,,,,,,,,,,,,,,,,,,,,,,,,,,,,,,,,,,55.0,55.0,57.0,133.0,133.0,57.0,2.1,2.12,-190,-268,0,-266,191,269,143.12814593315125,143.12822699546814,143.1314342021942,143.1411156654358,143.2926721572876,143.2926721572876,143.2926721572876,143.2926721572876,143.2926721572876,143.2926721572876,143.2926721572876,149.72046947479248,2,6.572943925857544,None,,,,,,,,,,,,,,,,,,4,2,2025-02-11_15h04.31.313,comp,2024.2.5,61.29290301839092,2025-02-11 15h04.38.444370 -0500,
16,16,0,critical,hwd,60.0,3.0,lower,133.0,57.0,57.0,133.0,55.0,55.0,2,4.233275651931763,None,,,,,0,0,0,0,0,16,16,104,149.7370641231537,,,,,,,,,,,,,,,,,,,,,,,,,,,,,,,,,,,,,,,,,,,,,,,,,,,,,,,,,,,,,,,,,,,,,,,,,,,,,,,,,133.0,57.0,57.0,133.0,55.0,55.0,3.0,3.2,-191,-254,0,-16,190,257,149.72211813926697,149.72219610214233,149.72522044181824,149.7370641231537,149.8796591758728,149.8796591758728,149.8796591758728,149.8796591758728,149.8796591758728,149.8796591758728,149.8796591758728,153.98821306228638,2,4.233275651931763,None,,,,,,,,,,,,,,,,,,4,2,2025-02-11_15h04.31.313,comp,2024.2.5,61.29290301839092,2025-02-11 15h04.38.444370 -0500,
17,17,0,critical,dhw,45.0,2.1,upper,117.0,117.0,200.0,125.0,125.0,200.0,3,8.532142877578735,None,,,,,0,0,0,0,0,17,17,1,154.0045144557953,,,,,,,,,,,,,,,,,,,,,,,,,,,,,,,,,,,,,,,,,,,,,,,,,,,,,,,,,,,,,,,,,,,,,,,,,,,,,,,,,117.0,117.0,200.0,125.0,125.0,200.0,2.1,2.11,-217,258,0,254,258,-257,153.98992133140564,153.99008798599243,153.9935348033905,154.0045144557953,154.15066862106323,154.15066862106323,154.15066862106323,154.15066862106323,154.15066862106323,154.15066862106323,154.15066862106323,162.54974603652954,3,8.532142877578735,None,,,,,,,,,,,,,,,,,,4,2,2025-02-11_15h04.31.313,comp,2024.2.5,61.29290301839092,2025-02-11 15h04.38.444370 -0500,
18,18,0,filler_square,None,None,None,None,None,None,None,None,None,None,3,2.9840641021728516,None,,,,,0,0,0,0,0,18,18,198,162.5686469078064,,,,,,,,,,,,,,,,,,,,,,,,,,,,,,,,,,,,,,,,,,,,,,,,,,,,,,,,,,,,,,,,,,,,,,,,,,,,,,,,,57.267921561273724,58.113652579728424,59.82820624229814,64.44305218518984,69.63729544185519,69.63729544185519,1.0,1.1,-637,254,-480,266,-317,269,162.55181312561035,162.5518937110901,162.55548977851868,162.5686469078064,162.7162721157074,162.7162721157074,162.7162721157074,162.7162721157074,162.7162721157074,162.7162721157074,162.7162721157074,165.5665910243988,3,2.9840641021728516,None,,,,,,,,,,,,,,,,,,4,2,2025-02-11_15h04.31.313,comp,2024.2.5,61.29290301839092,2025-02-11 15h04.38.444370 -0500,
19,19,0,critical,whd,60.0,2.1,lower,57.0,133.0,133.0,57.0,55.0,55.0,1,7.120978355407715,None,,,,,0,0,0,0,0,19,19,14,165.58346366882324,,,,,,,,,,,,,,,,,,,,,,,,,,,,,,,,,,,,,,,,,,,,,,,,,,,,,,,,,,,,,,,,,,,,,,,,,,,,,,,,,57.0,133.0,133.0,57.0,55.0,55.0,2.1,2.12,-191,-280,0,-257,152,288,165.56818056106567,165.5682590007782,165.5722918510437,165.58346366882324,165.7384614944458,165.7384614944458,165.7384614944458,165.7384614944458,165.7384614944458,165.7384614944458,165.7384614944458,172.71979546546936,1,7.120978355407715,None,,,,,,,,,,,,,,,,,,4,2,2025-02-11_15h04.31.313,comp,2024.2.5,61.29290301839092,2025-02-11 15h04.38.444370 -0500,
20,20,0,critical,dhw,45.0,1.0,upper,117.0,117.0,200.0,125.0,125.0,200.0,3,8.293703317642212,None,,,,,0,0,0,0,0,20,20,49,172.73939323425293,,,,,,,,,,,,,,,,,,,,,,,,,,,,,,,,,,,,,,,,,,,,,,,,,,,,,,,,,,,,,,,,,,,,,,,,,,,,,,,,,117.0,117.0,200.0,125.0,125.0,200.0,1.0,1.3,263,-259,480,-266,738,-264,172.72155737876892,172.72163653373718,172.72477674484253,172.73939323425293,172.88535022735596,172.88535022735596,172.88535022735596,172.88535022735596,172.88535022735596,172.88535022735596,172.88535022735596,181.0372829437256,3,8.293703317642212,None,,,,,,,,,,,,,,,,,,4,2,2025-02-11_15h04.31.313,comp,2024.2.5,61.29290301839092,2025-02-11 15h04.38.444370 -0500,
21,21,0,filler_square,None,None,None,None,None,None,None,None,None,None,2,7.538941860198975,None,,,,,0,0,0,0,0,21,21,172,181.0534176826477,,,,,,,,,,,,,,,,,,,,,,,,,,,,,,,,,,,,,,,,,,,,,,,,,,,,,,,,,,,,,,,,,,,,,,,,,,,,,,,,,76.34923620499845,58.63364459477124,77.71666351747919,77.71666351747919,74.50228853261677,76.68338094963724,1.0,1.1,-644,251,-480,263,-307,285,181.03908801078796,181.03916907310486,181.04266905784607,181.0534176826477,181.20485401153564,181.20485401153564,181.20485401153564,181.20485401153564,181.20485401153564,181.20485401153564,181.20485401153564,188.61019086837769,2,7.538941860198975,None,,,,,,,,,,,,,,,,,,4,2,2025-02-11_15h04.31.313,comp,2024.2.5,61.29290301839092,2025-02-11 15h04.38.444370 -0500,
22,22,0,critical,hdw,60.0,2.1,lower,133.0,57.0,55.0,55.0,57.0,133.0,3,3.653797149658203,None,,,,,0,0,0,0,0,22,22,22,188.62641048431396,,,,,,,,,,,,,,,,,,,,,,,,,,,,,,,,,,,,,,,,,,,,,,,,,,,,,,,,,,,,,,,,,,,,,,,,,,,,,,,,,133.0,57.0,55.0,55.0,57.0,133.0,2.1,2.11,-152,278,0,250,190,-255,188.6118519306183,188.61193990707397,188.6156508922577,188.62641048431396,188.77329778671265,188.77329778671265,188.77329778671265,188.77329778671265,188.77329778671265,188.77329778671265,188.77329778671265,192.28978657722473,3,3.653797149658203,None,,,,,,,,,,,,,,,,,,4,2,2025-02-11_15h04.31.313,comp,2024.2.5,61.29290301839092,2025-02-11 15h04.38.444370 -0500,
23,23,0,filler_square,None,None,None,None,None,None,None,None,None,None,3,7.188701868057251,None,,,,,0,0,0,0,0,23,23,204,192.3071324825287,,,,,,,,,,,,,,,,,,,,,,,,,,,,,,,,,,,,,,,,,,,,,,,,,,,,,,,,,,,,,,,,,,,,,,,,,,,,,,,,,69.65123005255761,67.16665535073234,63.27202681214696,58.25547417884437,74.88630497138483,74.88630497138483,2.2,2.21,-159,-287,0,287,163,253,192.29182124137878,192.2919008731842,192.29545831680298,192.3071324825287,192.4561104774475,192.4561104774475,192.4561104774475,192.4561104774475,192.4561104774475,192.4561104774475,192.4561104774475,199.51446723937988,3,7.188701868057251,None,,,,,,,,,,,,,,,,,,4,2,2025-02-11_15h04.31.313,comp,2024.2.5,61.29290301839092,2025-02-11 15h04.38.444370 -0500,
24,24,0,critical,hwd,45.0,3.0,upper,200.0,125.0,125.0,200.0,117.0,117.0,2,7.1290295124053955,None,,,,,0,0,0,0,0,24,24,99,199.53447008132935,,,,,,,,,,,,,,,,,,,,,,,,,,,,,,,,,,,,,,,,,,,,,,,,,,,,,,,,,,,,,,,,,,,,,,,,,,,,,,,,,200.0,125.0,125.0,200.0,117.0,117.0,3.0,3.1,-258,269,0,-8,254,-281,199.51606059074402,199.5161681175232,199.51923823356628,199.53447008132935,199.6772277355194,199.6772277355194,199.6772277355194,199.6772277355194,199.6772277355194,199.6772277355194,199.6772277355194,206.6779854297638,2,7.1290295124053955,None,,,,,,,,,,,,,,,,,,4,2,2025-02-11_15h04.31.313,comp,2024.2.5,61.29290301839092,2025-02-11 15h04.38.444370 -0500,
25,25,0,critical,hdw,60.0,1.0,lower,133.0,57.0,55.0,55.0,57.0,133.0,1,4.793283224105835,None,,,,,0,0,0,0,0,25,25,114,206.6943805217743,,,,,,,,,,,,,,,,,,,,,,,,,,,,,,,,,,,,,,,,,,,,,,,,,,,,,,,,,,,,,,,,,,,,,,,,,,,,,,,,,133.0,57.0,55.0,55.0,57.0,133.0,1.0,1.3,328,-250,480,-255,670,-267,206.6797068119049,206.67983841896057,206.68322134017944,206.6943805217743,206.84785532951355,206.84785532951355,206.84785532951355,206.84785532951355,206.84785532951355,206.84785532951355,206.84785532951355,211.49307203292847,1,4.793283224105835,None,,,,,,,,,,,,,,,,,,4,2,2025-02-11_15h04.31.313,comp,2024.2.5,61.29290301839092,2025-02-11 15h04.38.444370 -0500,
26,26,0,filler_random,None,None,None,None,None,None,None,None,None,None,1,2.2481942176818848,None,,,,,0,0,0,0,0,26,26,152,211.51159930229187,,,,,,,,,,,,,,,,,,,,,,,,,,,,,,,,,,,,,,,,,,,,,,,,,,,,,,,,,,,,,,,,,,,,,,,,,,,,,,,,,86.18754590839569,156.97008603337454,142.8060997979207,58.772028087559946,145.7975311364575,85.52420224907064,2.1,2.11,-204,285,0,264,168,-262,211.494784116745,211.494863986969,211.49789905548096,211.51159930229187,211.64696884155273,211.64696884155273,211.64696884155273,211.64696884155273,211.64696884155273,211.64696884155273,211.64696884155273,213.76249814033508,1,2.2481942176818848,None,,,,,,,,,,,,,,,,,,4,2,2025-02-11_15h04.31.313,comp,2024.2.5,61.29290301839092,2025-02-11 15h04.38.444370 -0500,
27,27,0,critical,hwd,60.0,1.0,upper,200.0,125.0,125.0,200.0,100.0,100.0,2,4.200785875320435,None,,,,,0,0,0,0,0,27,27,103,213.78236961364746,,,,,,,,,,,,,,,,,,,,,,,,,,,,,,,,,,,,,,,,,,,,,,,,,,,,,,,,,,,,,,,,,,,,,,,,,,,,,,,,,200.0,125.0,125.0,200.0,100.0,100.0,1.0,1.3,222,-260,480,-253,726,-250,213.76407766342163,213.76415753364563,213.76735377311707,213.78236961364746,213.92963480949402,213.92963480949402,213.92963480949402,213.92963480949402,213.92963480949402,213.92963480949402,213.92963480949402,217.99837923049927,2,4.200785875320435,None,,,,,,,,,,,,,,,,,,4,2,2025-02-11_15h04.31.313,comp,2024.2.5,61.29290301839092,2025-02-11 15h04.38.444370 -0500,
28,28,0,filler_square,None,None,None,None,None,None,None,None,None,None,1,1.010732650756836,None,,,,,0,0,0,0,0,28,28,174,218.0143268108368,,,,,,,,,,,,,,,,,,,,,,,,,,,,,,,,,,,,,,,,,,,,,,,,,,,,,,,,,,,,,,,,,,,,,,,,,,,,,,,,,176.66396428866835,176.66396428866835,75.38969224935096,121.9660308380695,158.46576079686088,109.84393613676323,2.2,2.21,-245,-282,0,254,212,263,217.99955987930298,217.9996075630188,218.00159668922424,218.0143268108368,218.15206146240234,218.15206146240234,218.15206146240234,218.15206146240234,218.15206146240234,218.15206146240234,218.15206146240234,219.0306658744812,1,1.010732650756836,None,,,,,,,,,,,,,,,,,,4,2,2025-02-11_15h04.31.313,comp,2024.2.5,61.29290301839092,2025-02-11 15h04.38.444370 -0500,
29,29,0,filler_square,None,None,None,None,None,None,None,None,None,None,2,2.2760226726531982,None,,,,,0,0,0,0,0,29,29,206,219.0514738559723,,,,,,,,,,,,,,,,,,,,,,,,,,,,,,,,,,,,,,,,,,,,,,,,,,,,,,,,,,,,,,,,,,,,,,,,,,,,,,,,,92.20213745222131,103.96989925339884,106.41329393552377,106.41329393552377,82.195200768303,85.2255593498729,2.2,2.21,-201,-283,0,272,192,275,219.0328106880188,219.03289103507996,219.03638315200806,219.0514738559723,219.19778537750244,219.19778537750244,219.19778537750244,219.19778537750244,219.19778537750244,219.19778537750244,219.19778537750244,221.3322286605835,2,2.2760226726531982,None,,,,,,,,,,,,,,,,,,4,2,2025-02-11_15h04.31.313,comp,2024.2.5,61.29290301839092,2025-02-11 15h04.38.444370 -0500,
30,30,0,filler_random,None,None,None,None,None,None,None,None,None,None,2,2.4755594730377197,None,,,,,0,0,0,0,0,30,30,163,221.3484606742859,,,,,,,,,,,,,,,,,,,,,,,,,,,,,,,,,,,,,,,,,,,,,,,,,,,,,,,,,,,,,,,,,,,,,,,,,,,,,,,,,142.7563039031527,58.83152801656791,98.27390548089429,142.77543563734486,93.4749655643384,63.77250097943569,1.0,1.3,283,-275,480,-274,679,-276,221.33396339416504,221.33407592773438,221.33761501312256,221.3484606742859,221.49805164337158,221.49805164337158,221.49805164337158,221.49805164337158,221.49805164337158,221.49805164337158,221.49805164337158,223.8347361087799,2,2.4755594730377197,None,,,,,,,,,,,,,,,,,,4,2,2025-02-11_15h04.31.313,comp,2024.2.5,61.29290301839092,2025-02-11 15h04.38.444370 -0500,
31,31,0,filler_random,None,None,None,None,None,None,None,None,None,None,2,1.932389736175537,None,,,,,0,0,0,0,0,31,31,147,223.8510766029358,,,,,,,,,,,,,,,,,,,,,,,,,,,,,,,,,,,,,,,,,,,,,,,,,,,,,,,,,,,,,,,,,,,,,,,,,,,,,,,,,167.0860061939565,88.60551822707622,180.66035683909703,188.7285342039385,185.4559793423118,102.95114276219611,2.1,2.12,-235,-279,0,-265,242,288,223.8365044593811,223.83658742904663,223.84015488624573,223.8510766029358,223.99980401992798,223.99980401992798,223.99980401992798,223.99980401992798,223.99980401992798,223.99980401992798,223.99980401992798,225.78682470321655,2,1.932389736175537,None,,,,,,,,,,,,,,,,,,4,2,2025-02-11_15h04.31.313,comp,2024.2.5,61.29290301839092,2025-02-11 15h04.38.444370 -0500,
32,32,0,critical,whd,60.0,3.0,upper,125.0,200.0,200.0,125.0,100.0,100.0,1,2.8192195892333984,None,,,,,0,0,0,0,0,32,32,93,225.80372738838196,,,,,,,,,,,,,,,,,,,,,,,,,,,,,,,,,,,,,,,,,,,,,,,,,,,,,,,,,,,,,,,,,,,,,,,,,,,,,,,,,125.0,200.0,200.0,125.0,100.0,100.0,3.0,3.2,-258,-272,0,-8,208,263,225.78848028182983,225.78858828544617,225.79197072982788,225.80372738838196,225.9507131576538,225.9507131576538,225.9507131576538,225.9507131576538,225.9507131576538,225.9507131576538,225.9507131576538,228.63265776634216,1,2.8192195892333984,None,,,,,,,,,,,,,,,,,,4,2,2025-02-11_15h04.31.313,comp,2024.2.5,61.29290301839092,2025-02-11 15h04.38.444370 -0500,
33,33,0,filler_square,None,None,None,None,None,None,None,None,None,None,3,1.621474027633667,None,,,,,0,0,0,0,0,33,33,194,228.64954280853271,,,,,,,,,,,,,,,,,,,,,,,,,,,,,,,,,,,,,,,,,,,,,,,,,,,,,,,,,,,,,,,,,,,,,,,,,,,,,,,,,143.49467045558896,147.77492795637494,123.19238286616034,138.16021318779445,182.46048996184282,182.46048996184282,2.2,2.21,-239,-279,0,264,256,253,228.634539604187,228.634619474411,228.63779211044312,228.64954280853271,228.80116939544678,228.80116939544678,228.80116939544678,228.80116939544678,228.80116939544678,228.80116939544678,228.80116939544678,230.28533720970154,3,1.621474027633667,None,,,,,,,,,,,,,,,,,,4,2,2025-02-11_15h04.31.313,comp,2024.2.5,61.29290301839092,2025-02-11 15h04.38.444370 -0500,
34,34,0,filler_square,None,None,None,None,None,None,None,None,None,None,2,2.20910906791687,None,,,,,0,0,0,0,0,34,34,209,230.30175614356995,,,,,,,,,,,,,,,,,,,,,,,,,,,,,,,,,,,,,,,,,,,,,,,,,,,,,,,,,,,,,,,,,,,,,,,,,,,,,,,,,60.556368156541915,68.08654171082654,70.73649667823912,70.73649667823912,57.18118398757531,68.60400423811535,1.0,1.3,315,-275,480,-263,646,-285,230.28749918937683,230.28760433197021,230.29143738746643,230.30175614356995,230.45133471488953,230.45133471488953,230.45133471488953,230.45133471488953,230.45133471488953,230.45133471488953,230.45133471488953,232.5258629322052,2,2.20910906791687,None,,,,,,,,,,,,,,,,,,4,2,2025-02-11_15h04.31.313,comp,2024.2.5,61.29290301839092,2025-02-11 15h04.38.444370 -0500,
35,35,0,critical,dwh,60.0,4.0,upper,100.0,100.0,125.0,200.0,200.0,125.0,3,6.653166770935059,None,,,,,0,0,0,0,0,35,35,71,232.54626750946045,,,,,,,,,,,,,,,,,,,,,,,,,,,,,,,,,,,,,,,,,,,,,,,,,,,,,,,,,,,,,,,,,,,,,,,,,,,,,,,,,100.0,100.0,125.0,200.0,200.0,125.0,4.0,4.1,-246,-250,0,16,258,-256,232.527414560318,232.52749514579773,232.5304913520813,232.54626750946045,232.68475127220154,232.68475127220154,232.68475127220154,232.68475127220154,232.68475127220154,232.68475127220154,232.68475127220154,239.20431923866272,3,6.653166770935059,None,,,,,,,,,,,,,,,,,,4,2,2025-02-11_15h04.31.313,comp,2024.2.5,61.29290301839092,2025-02-11 15h04.38.444370 -0500,
36,36,0,critical,hdw,45.0,2.1,lower,133.0,57.0,65.0,65.0,57.0,133.0,3,2.22554087638855,None,,,,,0,0,0,0,0,36,36,44,239.22102975845337,,,,,,,,,,,,,,,,,,,,,,,,,,,,,,,,,,,,,,,,,,,,,,,,,,,,,,,,,,,,,,,,,,,,,,,,,,,,,,,,,133.0,57.0,65.0,65.0,57.0,133.0,2.1,2.12,-157,-278,0,-267,195,277,239.20593810081482,239.20604038238525,239.21023106575012,239.22102975845337,239.36748433113098,239.36748433113098,239.36748433113098,239.36748433113098,239.36748433113098,239.36748433113098,239.36748433113098,241.4559440612793,3,2.22554087638855,None,,,,,,,,,,,,,,,,,,4,2,2025-02-11_15h04.31.313,comp,2024.2.5,61.29290301839092,2025-02-11 15h04.38.444370 -0500,
37,37,0,catch,None,None,None,None,None,None,None,None,None,None,2,1.4954922199249268,None,,,,,0,0,0,0,0,37,37,127,241.47311758995056,,,,,,,,,,,,,,,,,,,,,,,,,,,,,,,,,,,,,,,,,,,,,,,,,,,,,,,,,,,,,,,,,,,,,,,,,,,,,,,,,72,118,160,165,99,91,2.2,2.21,-238,-254,0,271,224,279,241.45821237564087,241.4582953453064,241.4623417854309,241.47311758995056,241.62123680114746,241.62123680114746,241.62123680114746,241.62123680114746,241.62123680114746,241.62123680114746,241.62123680114746,242.97322368621826,2,1.4954922199249268,None,,,,,,,,,,,,,,,,,,4,2,2025-02-11_15h04.31.313,comp,2024.2.5,61.29290301839092,2025-02-11 15h04.38.444370 -0500,
38,38,0,critical,hwd,45.0,2.1,upper,200.0,125.0,125.0,200.0,117.0,117.0,1,2.4330365657806396,None,,,,,0,0,0,0,0,38,38,41,242.989488363266,,,,,,,,,,,,,,,,,,,,,,,,,,,,,,,,,,,,,,,,,,,,,,,,,,,,,,,,,,,,,,,,,,,,,,,,,,,,,,,,,200.0,125.0,125.0,200.0,117.0,117.0,2.1,2.11,-258,261,0,290,254,-282,242.97477650642395,242.9748842716217,242.97833824157715,242.989488363266,243.13680124282837,243.13680124282837,243.13680124282837,243.13680124282837,243.13680124282837,243.13680124282837,243.13680124282837,245.43907523155212,1,2.4330365657806396,None,,,,,,,,,,,,,,,,,,4,2,2025-02-11_15h04.31.313,comp,2024.2.5,61.29290301839092,2025-02-11 15h04.38.444370 -0500,
39,39,0,filler_square,None,None,None,None,None,None,None,None,None,None,2,1.1592679023742676,None,,,,,0,0,0,0,0,39,39,187,245.45523691177368,,,,,,,,,,,,,,,,,,,,,,,,,,,,,,,,,,,,,,,,,,,,,,,,,,,,,,,,,,,,,,,,,,,,,,,,,,,,,,,,,89.30846617387886,151.45061287449255,189.10534389350963,189.10534389350963,149.36206130573936,57.0374810831813,4.0,4.2,-266,7,0,-287,219,-16,245.44112133979797,245.44119882583618,245.44489645957947,245.45523691177368,245.60662698745728,245.60662698745728,245.60662698745728,245.60662698745728,245.60662698745728,245.60662698745728,245.60662698745728,246.6240360736847,2,1.1592679023742676,None,,,,,,,,,,,,,,,,,,4,2,2025-02-11_15h04.31.313,comp,2024.2.5,61.29290301839092,2025-02-11 15h04.38.444370 -0500,
40,40,0,critical,wdh,45.0,3.0,upper,125.0,200.0,117.0,117.0,200.0,125.0,1,5.759483814239502,None,,,,,0,0,0,0,0,40,40,75,246.63987374305725,,,,,,,,,,,,,,,,,,,,,,,,,,,,,,,,,,,,,,,,,,,,,,,,,,,,,,,,,,,,,,,,,,,,,,,,,,,,,,,,,125.0,200.0,117.0,117.0,200.0,125.0,3.0,3.1,-254,286,0,10,217,-269,246.62558126449585,246.62566328048706,246.62910652160645,246.63987374305725,246.78582215309143,246.78582215309143,246.78582215309143,246.78582215309143,246.78582215309143,246.78582215309143,246.78582215309143,252.4085144996643,1,5.759483814239502,None,,,,,,,,,,,,,,,,,,4,2,2025-02-11_15h04.31.313,comp,2024.2.5,61.29290301839092,2025-02-11 15h04.38.444370 -0500,
41,41,0,filler_random,None,None,None,None,None,None,None,None,None,None,3,3.43762469291687,None,,,,,0,0,0,0,0,41,41,142,252.42466568946838,,,,,,,,,,,,,,,,,,,,,,,,,,,,,,,,,,,,,,,,,,,,,,,,,,,,,,,,,,,,,,,,,,,,,,,,,,,,,,,,,124.5856119057977,83.91121811648242,196.95430262078773,118.58393444655997,184.6194307786198,128.80665245184917,4.0,4.1,-197,-281,0,17,220,-263,252.4102976322174,252.41037964820862,252.4138536453247,252.42466568946838,252.57448768615723,252.57448768615723,252.57448768615723,252.57448768615723,252.57448768615723,252.57448768615723,252.57448768615723,255.87681221961975,3,3.43762469291687,None,,,,,,,,,,,,,,,,,,4,2,2025-02-11_15h04.31.313,comp,2024.2.5,61.29290301839092,2025-02-11 15h04.38.444370 -0500,
42,42,0,filler_square,None,None,None,None,None,None,None,None,None,None,2,0.8573670387268066,None,,,,,0,0,0,0,0,42,42,201,255.89302349090576,,,,,,,,,,,,,,,,,,,,,,,,,,,,,,,,,,,,,,,,,,,,,,,,,,,,,,,,,,,,,,,,,,,,,,,,,,,,,,,,,58.74568625201901,132.81321227029258,196.4262200604569,196.4262200604569,130.34955634660878,137.69569094248112,4.0,4.1,-261,-270,0,-17,263,-273,255.87881231307983,255.87889790534973,255.88263940811157,255.89302349090576,256.0500593185425,256.0500593185425,256.0500593185425,256.0500593185425,256.0500593185425,256.0500593185425,256.0500593185425,256.7684829235077,2,0.8573670387268066,None,,,,,,,,,,,,,,,,,,4,2,2025-02-11_15h04.31.313,comp,2024.2.5,61.29290301839092,2025-02-11 15h04.38.444370 -0500,
43,43,0,catch,None,None,None,None,None,None,None,None,None,None,1,0.941361665725708,None,,,,,0,0,0,0,0,43,43,125,256.78479075431824,,,,,,,,,,,,,,,,,,,,,,,,,,,,,,,,,,,,,,,,,,,,,,,,,,,,,,,,,,,,,,,,,,,,,,,,,,,,,,,,,174,151,128,62,87,103,2.2,2.22,-202,267,0,-269,178,-251,256.77043652534485,256.7705166339874,256.77351093292236,256.78479075431824,256.93193101882935,256.93193101882935,256.93193101882935,256.93193101882935,256.93193101882935,256.93193101882935,256.93193101882935,257.7428584098816,1,0.941361665725708,None,,,,,,,,,,,,,,,,,,4,2,2025-02-11_15h04.31.313,comp,2024.2.5,61.29290301839092,2025-02-11 15h04.38.444370 -0500,
44,44,0,critical,dwh,45.0,4.0,lower,65.0,65.0,57.0,133.0,133.0,57.0,2,10.688050270080566,None,,,,,0,0,0,0,0,44,44,64,257.7584090232849,,,,,,,,,,,,,,,,,,,,,,,,,,,,,,,,,,,,,,,,,,,,,,,,,,,,,,,,,,,,,,,,,,,,,,,,,,,,,,,,,65.0,65.0,57.0,133.0,133.0,57.0,4.0,4.1,-195,-287,0,14,191,-269,257.7444214820862,257.74450063705444,257.7480216026306,257.7584090232849,257.9131796360016,257.9131796360016,257.9131796360016,257.9131796360016,257.9131796360016,257.9131796360016,257.9131796360016,268.448579788208,2,10.688050270080566,None,,,,,,,,,,,,,,,,,,4,2,2025-02-11_15h04.31.313,comp,2024.2.5,61.29290301839092,2025-02-11 15h04.38.444370 -0500,
45,45,0,filler_random,None,None,None,None,None,None,None,None,None,None,1,1.3329236507415771,None,,,,,0,0,0,0,0,45,45,136,268.4648642539978,,,,,,,,,,,,,,,,,,,,,,,,,,,,,,,,,,,,,,,,,,,,,,,,,,,,,,,,,,,,,,,,,,,,,,,,,,,,,,,,,162.18919356554386,178.80078522371872,146.21735212370248,160.84851629316844,117.54933712357783,67.26803879211384,4.0,4.1,-266,-286,0,-17,210,-256,268.45049118995667,268.45057487487793,268.45392322540283,268.4648642539978,268.61350297927856,268.61350297927856,268.61350297927856,268.61350297927856,268.61350297927856,268.61350297927856,268.61350297927856,269.8120307922363,1,1.3329236507415771,None,,,,,,,,,,,,,,,,,,4,2,2025-02-11_15h04.31.313,comp,2024.2.5,61.29290301839092,2025-02-11 15h04.38.444370 -0500,
46,46,0,filler_random,None,None,None,None,None,None,None,None,None,None,3,5.781359434127808,None,,,,,0,0,0,0,0,46,46,156,269.83283162117004,,,,,,,,,,,,,,,,,,,,,,,,,,,,,,,,,,,,,,,,,,,,,,,,,,,,,,,,,,,,,,,,,,,,,,,,,,,,,,,,,145.73645876225723,77.34842455353767,89.85388957972,83.57888707591621,176.55194199892122,131.95556844687786,2.2,2.21,-176,-289,0,289,204,276,269.81388783454895,269.81404876708984,269.8174548149109,269.83283162117004,269.98126125335693,269.98126125335693,269.98126125335693,269.98126125335693,269.98126125335693,269.98126125335693,269.98126125335693,275.63206601142883,3,5.781359434127808,None,,,,,,,,,,,,,,,,,,4,2,2025-02-11_15h04.31.313,comp,2024.2.5,61.29290301839092,2025-02-11 15h04.38.444370 -0500,
47,47,0,filler_random,None,None,None,None,None,None,None,None,None,None,3,9.73620343208313,None,,,,,0,0,0,0,0,47,47,143,275.65336537361145,,,,,,,,,,,,,,,,,,,,,,,,,,,,,,,,,,,,,,,,,,,,,,,,,,,,,,,,,,,,,,,,,,,,,,,,,,,,,,,,,58.36305373256499,93.90712828455224,159.60913519665195,85.9289418178455,139.08155770839068,96.01507046908571,2.1,2.11,-186,288,0,252,187,-270,275.63411569595337,275.6342270374298,275.63805317878723,275.65336537361145,275.80109095573425,275.80109095573425,275.80109095573425,275.80109095573425,275.80109095573425,275.80109095573425,275.80109095573425,285.4011347293854,3,9.73620343208313,None,,,,,,,,,,,,,,,,,,4,2,2025-02-11_15h04.31.313,comp,2024.2.5,61.29290301839092,2025-02-11 15h04.38.444370 -0500,
48,48,0,filler_random,None,None,None,None,None,None,None,None,None,None,3,6.059924125671387,None,,,,,0,0,0,0,0,48,48,149,285.41816329956055,,,,,,,,,,,,,,,,,,,,,,,,,,,,,,,,,,,,,,,,,,,,,,,,,,,,,,,,,,,,,,,,,,,,,,,,,,,,,,,,,139.1485589577332,72.11787380743883,82.65559397135675,92.3054705246081,134.14121164078395,98.18148419294882,1.0,1.1,-658,279,-480,281,-289,281,285.40317487716675,285.40327525138855,285.4072701931,285.41816329956055,285.5671110153198,285.5671110153198,285.5671110153198,285.5671110153198,285.5671110153198,285.5671110153198,285.5671110153198,291.48461079597473,3,6.059924125671387,None,,,,,,,,,,,,,,,,,,4,2,2025-02-11_15h04.31.313,comp,2024.2.5,61.29290301839092,2025-02-11 15h04.38.444370 -0500,
49,49,0,filler_random,None,None,None,None,None,None,None,None,None,None,3,1.6839849948883057,None,,,,,0,0,0,0,0,49,49,145,291.5060477256775,,,,,,,,,,,,,,,,,,,,,,,,,,,,,,,,,,,,,,,,,,,,,,,,,,,,,,,,,,,,,,,,,,,,,,,,,,,,,,,,,107.15549121861957,130.0960331370187,130.30175306954476,72.49750370000933,199.14779844040186,151.3231558139537,2.2,2.22,-197,250,0,-265,208,-266,291.48655009269714,291.4866876602173,291.49009442329407,291.5060477256775,291.651780128479,291.651780128479,291.651780128479,291.651780128479,291.651780128479,291.651780128479,291.651780128479,293.1982307434082,3,1.6839849948883057,None,,,,,,,,,,,,,,,,,,4,2,2025-02-11_15h04.31.313,comp,2024.2.5,61.29290301839092,2025-02-11 15h04.38.444370 -0500,
50,50,0,critical,dhw,45.0,1.0,lower,65.0,65.0,133.0,57.0,57.0,133.0,3,5.068569660186768,None,,,,,0,0,0,0,0,50,50,48,293.2166738510132,,,,,,,,,,,,,,,,,,,,,,,,,,,,,,,,,,,,,,,,,,,,,,,,,,,,,,,,,,,,,,,,,,,,,,,,,,,,,,,,,65.0,65.0,133.0,57.0,57.0,133.0,1.0,1.2,-157,4,0,9,191,14,293.19990944862366,293.200070142746,293.2035279273987,293.2166738510132,293.35128259658813,293.35128259658813,293.35128259658813,293.35128259658813,293.35128259658813,293.35128259658813,293.35128259658813,298.3042781352997,3,5.068569660186768,None,,,,,,,,,,,,,,,,,,4,2,2025-02-11_15h04.31.313,comp,2024.2.5,61.29290301839092,2025-02-11 15h04.38.444370 -0500,
51,51,0,filler_square,None,None,None,None,None,None,None,None,None,None,3,3.938366174697876,None,,,,,0,0,0,0,0,51,51,200,298.3226194381714,,,,,,,,,,,,,,,,,,,,,,,,,,,,,,,,,,,,,,,,,,,,,,,,,,,,,,,,,,,,,,,,,,,,,,,,,,,,,,,,,117.33573285036358,115.82707511667137,119.60868610801822,154.9124700709837,155.81108771169045,155.81108771169045,2.1,2.11,-231,276,0,278,251,-274,298.3063633441925,298.3064422607422,298.3099684715271,298.3226194381714,298.47116136550903,298.47116136550903,298.47116136550903,298.47116136550903,298.47116136550903,298.47116136550903,298.47116136550903,302.27209877967834,3,3.938366174697876,None,,,,,,,,,,,,,,,,,,4,2,2025-02-11_15h04.31.313,comp,2024.2.5,61.29290301839092,2025-02-11 15h04.38.444370 -0500,
52,52,0,critical,dwh,45.0,3.0,lower,65.0,65.0,57.0,133.0,133.0,57.0,2,2.390130043029785,None,,,,,0,0,0,0,0,52,52,62,302.2891571521759,,,,,,,,,,,,,,,,,,,,,,,,,,,,,,,,,,,,,,,,,,,,,,,,,,,,,,,,,,,,,,,,,,,,,,,,,,,,,,,,,65.0,65.0,57.0,133.0,133.0,57.0,3.0,3.2,-195,-276,0,9,191,251,302.2736611366272,302.27374291419983,302.2779219150543,302.2891571521759,302.4360167980194,302.4360167980194,302.4360167980194,302.4360167980194,302.4360167980194,302.4360167980194,302.4360167980194,304.6897976398468,2,2.390130043029785,None,,,,,,,,,,,,,,,,,,4,2,2025-02-11_15h04.31.313,comp,2024.2.5,61.29290301839092,2025-02-11 15h04.38.444370 -0500,
53,53,0,critical,dwh,45.0,2.1,upper,117.0,117.0,125.0,200.0,200.0,125.0,2,1.7542285919189453,None,,,,,0,0,0,0,0,53,53,5,304.7066204547882,,,,,,,,,,,,,,,,,,,,,,,,,,,,,,,,,,,,,,,,,,,,,,,,,,,,,,,,,,,,,,,,,,,,,,,,,,,,,,,,,117.0,117.0,125.0,200.0,200.0,125.0,2.1,2.11,-254,261,0,260,258,-254,304.69143080711365,304.69151401519775,304.69516491889954,304.7066204547882,304.863214969635,304.863214969635,304.863214969635,304.863214969635,304.863214969635,304.863214969635,304.863214969635,306.47591757774353,2,1.7542285919189453,None,,,,,,,,,,,,,,,,,,4,2,2025-02-11_15h04.31.313,comp,2024.2.5,61.29290301839092,2025-02-11 15h04.38.444370 -0500,
54,54,0,critical,whd,45.0,4.0,upper,125.0,200.0,200.0,125.0,117.0,117.0,1,6.6390931606292725,None,,,,,0,0,0,0,0,54,54,89,306.49458265304565,,,,,,,,,,,,,,,,,,,,,,,,,,,,,,,,,,,,,,,,,,,,,,,,,,,,,,,,,,,,,,,,,,,,,,,,,,,,,,,,,125.0,200.0,200.0,125.0,117.0,117.0,4.0,4.1,-258,-288,0,3,217,-287,306.4775929450989,306.477676153183,306.4808826446533,306.49458265304565,306.6402356624603,306.6402356624603,306.6402356624603,306.6402356624603,306.6402356624603,306.6402356624603,306.6402356624603,313.1437213420868,1,6.6390931606292725,None,,,,,,,,,,,,,,,,,,4,2,2025-02-11_15h04.31.313,comp,2024.2.5,61.29290301839092,2025-02-11 15h04.38.444370 -0500,
55,55,0,filler_square,None,None,None,None,None,None,None,None,None,None,3,1.268371820449829,None,,,,,0,0,0,0,0,55,55,170,313.16035175323486,,,,,,,,,,,,,,,,,,,,,,,,,,,,,,,,,,,,,,,,,,,,,,,,,,,,,,,,,,,,,,,,,,,,,,,,,,,,,,,,,131.7510533680176,125.58726094992022,119.96780170611683,133.76228179434645,199.4821970775191,199.4821970775191,3.0,3.1,-226,281,0,16,263,-283,313.1462595462799,313.14639472961426,313.1495792865753,313.16035175323486,313.31097531318665,313.31097531318665,313.31097531318665,313.31097531318665,313.31097531318665,313.31097531318665,313.31097531318665,314.4417893886566,3,1.268371820449829,None,,,,,,,,,,,,,,,,,,4,2,2025-02-11_15h04.31.313,comp,2024.2.5,61.29290301839092,2025-02-11 15h04.38.444370 -0500,
56,56,0,catch,None,None,None,None,None,None,None,None,None,None,1,1.1477901935577393,None,,,,,0,0,0,0,0,56,56,121,314.45739555358887,,,,,,,,,,,,,,,,,,,,,,,,,,,,,,,,,,,,,,,,,,,,,,,,,,,,,,,,,,,,,,,,,,,,,,,,,,,,,,,,,147,178,79,111,133,57,4.0,4.1,-240,-256,0,0,180,-277,314.44375467300415,314.4438352584839,314.4468846321106,314.45739555358887,314.6074252128601,314.6074252128601,314.6074252128601,314.6074252128601,314.6074252128601,314.6074252128601,314.6074252128601,315.6081702709198,1,1.1477901935577393,None,,,,,,,,,,,,,,,,,,4,2,2025-02-11_15h04.31.313,comp,2024.2.5,61.29290301839092,2025-02-11 15h04.38.444370 -0500,
57,57,0,filler_random,None,None,None,None,None,None,None,None,None,None,1,1.5476810932159424,None,,,,,0,0,0,0,0,57,57,159,315.6254897117615,,,,,,,,,,,,,,,,,,,,,,,,,,,,,,,,,,,,,,,,,,,,,,,,,,,,,,,,,,,,,,,,,,,,,,,,,,,,,,,,,178.71693379300314,88.00965580424358,82.853578789201,58.29227371794875,101.69184260004195,103.84318753802224,4.0,4.1,-169,-256,0,15,177,-278,315.60992789268494,315.6100480556488,315.6136009693146,315.6254897117615,315.78239250183105,315.78239250183105,315.78239250183105,315.78239250183105,315.78239250183105,315.78239250183105,315.78239250183105,317.1754264831543,1,1.5476810932159424,None,,,,,,,,,,,,,,,,,,4,2,2025-02-11_15h04.31.313,comp,2024.2.5,61.29290301839092,2025-02-11 15h04.38.444370 -0500,
58,58,0,critical,whd,45.0,4.0,lower,57.0,133.0,133.0,57.0,65.0,65.0,1,2.3698768615722656,None,,,,,0,0,0,0,0,58,58,88,317.19486951828003,,,,,,,,,,,,,,,,,,,,,,,,,,,,,,,,,,,,,,,,,,,,,,,,,,,,,,,,,,,,,,,,,,,,,,,,,,,,,,,,,57.0,133.0,133.0,57.0,65.0,65.0,4.0,4.1,-191,-284,0,-2,157,-272,317.17709946632385,317.17723631858826,317.18075370788574,317.19486951828003,317.3429524898529,317.3429524898529,317.3429524898529,317.3429524898529,317.3429524898529,317.3429524898529,317.3429524898529,319.57858443260193,1,2.3698768615722656,None,,,,,,,,,,,,,,,,,,4,2,2025-02-11_15h04.31.313,comp,2024.2.5,61.29290301839092,2025-02-11 15h04.38.444370 -0500,
59,59,0,critical,dhw,60.0,4.0,lower,55.0,55.0,133.0,57.0,57.0,133.0,3,2.033921241760254,None,,,,,0,0,0,0,0,59,59,58,319.5946352481842,,,,,,,,,,,,,,,,,,,,,,,,,,,,,,,,,,,,,,,,,,,,,,,,,,,,,,,,,,,,,,,,,,,,,,,,,,,,,,,,,55.0,55.0,133.0,57.0,57.0,133.0,4.0,4.1,-152,-263,0,-11,191,-280,319.5803153514862,319.5804536342621,319.58424043655396,319.5946352481842,319.7435338497162,319.7435338497162,319.7435338497162,319.7435338497162,319.7435338497162,319.7435338497162,319.7435338497162,321.64644742012024,3,2.033921241760254,None,,,,,,,,,,,,,,,,,,4,2,2025-02-11_15h04.31.313,comp,2024.2.5,61.29290301839092,2025-02-11 15h04.38.444370 -0500,
60,60,0,catch,None,None,None,None,None,None,None,None,None,None,3,1.278487205505371,None,,,,,0,0,0,0,0,60,60,129,321.6620786190033,,,,,,,,,,,,,,,,,,,,,,,,,,,,,,,,,,,,,,,,,,,,,,,,,,,,,,,,,,,,,,,,,,,,,,,,,,,,,,,,,76,114,129,61,142,183,2.1,2.11,-184,277,0,256,218,-270,321.64855194091797,321.64863634109497,321.6518385410309,321.6620786190033,321.8100538253784,321.8100538253784,321.8100538253784,321.8100538253784,321.8100538253784,321.8100538253784,321.8100538253784,322.94646549224854,3,1.278487205505371,None,,,,,,,,,,,,,,,,,,4,2,2025-02-11_15h04.31.313,comp,2024.2.5,61.29290301839092,2025-02-11 15h04.38.444370 -0500,
61,61,0,critical,dwh,45.0,2.1,upper,117.0,117.0,125.0,200.0,200.0,125.0,2,5.255645513534546,None,,,,,0,0,0,0,0,61,61,29,322.96470522880554,,,,,,,,,,,,,,,,,,,,,,,,,,,,,,,,,,,,,,,,,,,,,,,,,,,,,,,,,,,,,,,,,,,,,,,,,,,,,,,,,117.0,117.0,125.0,200.0,200.0,125.0,2.1,2.12,-254,-266,0,-273,258,264,322.948114156723,322.9482350349426,322.95173501968384,322.96470522880554,323.11060905456543,323.11060905456543,323.11060905456543,323.11060905456543,323.11060905456543,323.11060905456543,323.11060905456543,328.2367162704468,2,5.255645513534546,None,,,,,,,,,,,,,,,,,,4,2,2025-02-11_15h04.31.313,comp,2024.2.5,61.29290301839092,2025-02-11 15h04.38.444370 -0500,
62,62,0,critical,hwd,60.0,4.0,lower,133.0,57.0,57.0,133.0,55.0,55.0,2,3.577242612838745,None,,,,,0,0,0,0,0,62,62,106,328.25184202194214,,,,,,,,,,,,,,,,,,,,,,,,,,,,,,,,,,,,,,,,,,,,,,,,,,,,,,,,,,,,,,,,,,,,,,,,,,,,,,,,,133.0,57.0,57.0,133.0,55.0,55.0,4.0,4.1,-191,-272,0,-8,190,-275,328.23828172683716,328.23835825920105,328.2414081096649,328.25184202194214,328.39271235466003,328.39271235466003,328.39271235466003,328.39271235466003,328.39271235466003,328.39271235466003,328.39271235466003,331.83820247650146,2,3.577242612838745,None,,,,,,,,,,,,,,,,,,4,2,2025-02-11_15h04.31.313,comp,2024.2.5,61.29290301839092,2025-02-11 15h04.38.444370 -0500,
63,63,0,filler_random,None,None,None,None,None,None,None,None,None,None,2,1.3163788318634033,None,,,,,0,0,0,0,0,63,63,167,331.8562824726105,,,,,,,,,,,,,,,,,,,,,,,,,,,,,,,,,,,,,,,,,,,,,,,,,,,,,,,,,,,,,,,,,,,,,,,,,,,,,,,,,61.69707080394782,140.9036811228666,88.48834256870144,185.56872515480134,72.70838814238559,127.83421578177531,2.2,2.22,-259,275,0,-287,253,-262,331.8399407863617,331.84005069732666,331.84309697151184,331.8562824726105,331.9982933998108,331.9982933998108,331.9982933998108,331.9982933998108,331.9982933998108,331.9982933998108,331.9982933998108,333.1752099990845,2,1.3163788318634033,None,,,,,,,,,,,,,,,,,,4,2,2025-02-11_15h04.31.313,comp,2024.2.5,61.29290301839092,2025-02-11 15h04.38.444370 -0500,
64,64,0,critical,hdw,45.0,2.1,upper,200.0,125.0,117.0,117.0,125.0,200.0,3,6.4398345947265625,None,,,,,0,0,0,0,0,64,64,45,333.1962821483612,,,,,,,,,,,,,,,,,,,,,,,,,,,,,,,,,,,,,,,,,,,,,,,,,,,,,,,,,,,,,,,,,,,,,,,,,,,,,,,,,200.0,125.0,117.0,117.0,125.0,200.0,2.1,2.12,-217,-251,0,-262,254,252,333.17683959007263,333.1769232749939,333.180456161499,333.1962821483612,333.33308577537537,333.33308577537537,333.33308577537537,333.33308577537537,333.33308577537537,333.33308577537537,333.33308577537537,339.6503686904907,3,6.4398345947265625,None,,,,,,,,,,,,,,,,,,4,2,2025-02-11_15h04.31.313,comp,2024.2.5,61.29290301839092,2025-02-11 15h04.38.444370 -0500,
65,65,0,critical,whd,60.0,2.1,lower,57.0,133.0,133.0,57.0,55.0,55.0,2,12.219102382659912,None,,,,,0,0,0,0,0,65,65,38,339.66580390930176,,,,,,,,,,,,,,,,,,,,,,,,,,,,,,,,,,,,,,,,,,,,,,,,,,,,,,,,,,,,,,,,,,,,,,,,,,,,,,,,,57.0,133.0,133.0,57.0,55.0,55.0,2.1,2.12,-191,-278,0,-271,152,257,339.6518449783325,339.65192222595215,339.65531182289124,339.66580390930176,339.8165316581726,339.8165316581726,339.8165316581726,339.8165316581726,339.8165316581726,339.8165316581726,339.8165316581726,351.8921618461609,2,12.219102382659912,None,,,,,,,,,,,,,,,,,,4,2,2025-02-11_15h04.31.313,comp,2024.2.5,61.29290301839092,2025-02-11 15h04.38.444370 -0500,
66,66,0,critical,hwd,45.0,3.0,lower,133.0,57.0,57.0,133.0,65.0,65.0,2,2.0242886543273926,None,,,,,0,0,0,0,0,66,66,98,351.9079022407532,,,,,,,,,,,,,,,,,,,,,,,,,,,,,,,,,,,,,,,,,,,,,,,,,,,,,,,,,,,,,,,,,,,,,,,,,,,,,,,,,133.0,57.0,57.0,133.0,65.0,65.0,3.0,3.1,-191,272,0,2,195,-271,351.8937141895294,351.8937957286835,351.89682149887085,351.9079022407532,352.0519814491272,352.0519814491272,352.0519814491272,352.0519814491272,352.0519814491272,352.0519814491272,352.0519814491272,353.9354507923126,2,2.0242886543273926,None,,,,,,,,,,,,,,,,,,4,2,2025-02-11_15h04.31.313,comp,2024.2.5,61.29290301839092,2025-02-11 15h04.38.444370 -0500,
67,67,0,critical,dhw,60.0,2.1,lower,55.0,55.0,133.0,57.0,57.0,133.0,2,1.7965259552001953,None,,,,,0,0,0,0,0,67,67,2,353.9520947933197,,,,,,,,,,,,,,,,,,,,,,,,,,,,,,,,,,,,,,,,,,,,,,,,,,,,,,,,,,,,,,,,,,,,,,,,,,,,,,,,,55.0,55.0,133.0,57.0,57.0,133.0,2.1,2.11,-152,251,0,282,191,-274,353.93704319000244,353.93712615966797,353.9404010772705,353.9520947933197,354.1056640148163,354.1056640148163,354.1056640148163,354.1056640148163,354.1056640148163,354.1056640148163,354.1056640148163,355.7539436817169,2,1.7965259552001953,None,,,,,,,,,,,,,,,,,,4,2,2025-02-11_15h04.31.313,comp,2024.2.5,61.29290301839092,2025-02-11 15h04.38.444370 -0500,
68,68,0,filler_random,None,None,None,None,None,None,None,None,None,None,3,1.2342371940612793,None,,,,,0,0,0,0,0,68,68,131,355.77048444747925,,,,,,,,,,,,,,,,,,,,,,,,,,,,,,,,,,,,,,,,,,,,,,,,,,,,,,,,,,,,,,,,,,,,,,,,,,,,,,,,,63.847095524281926,72.67533503203711,129.41415269591118,87.16533611454119,175.23171549898365,183.3418471766254,3.0,3.2,-176,-275,0,-14,231,278,355.75596046447754,355.75612139701843,355.759703874588,355.77048444747925,355.92165088653564,355.92165088653564,355.92165088653564,355.92165088653564,355.92165088653564,355.92165088653564,355.92165088653564,357.0111200809479,3,1.2342371940612793,None,,,,,,,,,,,,,,,,,,4,2,2025-02-11_15h04.31.313,comp,2024.2.5,61.29290301839092,2025-02-11 15h04.38.444370 -0500,
69,69,0,critical,dwh,60.0,2.1,upper,100.0,100.0,125.0,200.0,200.0,125.0,2,7.68932580947876,None,,,,,0,0,0,0,0,69,69,31,357.0271394252777,,,,,,,,,,,,,,,,,,,,,,,,,,,,,,,,,,,,,,,,,,,,,,,,,,,,,,,,,,,,,,,,,,,,,,,,,,,,,,,,,100.0,100.0,125.0,200.0,200.0,125.0,2.1,2.11,-246,271,0,263,258,-283,357.0127041339874,357.01278614997864,357.0163974761963,357.0271394252777,357.17418456077576,357.17418456077576,357.17418456077576,357.17418456077576,357.17418456077576,357.17418456077576,357.17418456077576,364.725257396698,2,7.68932580947876,None,,,,,,,,,,,,,,,,,,4,2,2025-02-11_15h04.31.313,comp,2024.2.5,61.29290301839092,2025-02-11 15h04.38.444370 -0500,
70,70,0,filler_random,None,None,None,None,None,None,None,None,None,None,3,27.269287586212158,None,,,,,0,0,0,0,0,70,70,166,364.742041349411,,,,,,,,,,,,,,,,,,,,,,,,,,,,,,,,,,,,,,,,,,,,,,,,,,,,,,,,,,,,,,,,,,,,,,,,,,,,,,,,,60.294167463028856,73.81906634665455,92.42462761107349,109.81791725627872,178.08156865819646,61.32548146852582,2.2,2.22,-188,286,0,-277,182,-261,364.7273018360138,364.7273836135864,364.7310767173767,364.742041349411,364.89205265045166,364.89205265045166,364.89205265045166,364.89205265045166,364.89205265045166,364.89205265045166,364.89205265045166,392.0136048793793,3,27.269287586212158,None,,,,,,,,,,,,,,,,,,4,2,2025-02-11_15h04.31.313,comp,2024.2.5,61.29290301839092,2025-02-11 15h04.38.444370 -0500,
71,71,0,critical,wdh,60.0,1.0,upper,125.0,200.0,100.0,100.0,200.0,125.0,1,3.056117534637451,None,,,,,0,0,0,0,0,71,71,79,392.0344259738922,,,,,,,,,,,,,,,,,,,,,,,,,,,,,,,,,,,,,,,,,,,,,,,,,,,,,,,,,,,,,,,,,,,,,,,,,,,,,,,,,125.0,200.0,100.0,100.0,200.0,125.0,1.0,1.1,-726,277,-480,259,-272,285,392.0151937007904,392.01529812812805,392.0185167789459,392.0344259738922,392.1781575679779,392.1781575679779,392.1781575679779,392.1781575679779,392.1781575679779,392.1781575679779,392.1781575679779,395.1068825721741,1,3.056117534637451,None,,,,,,,,,,,,,,,,,,4,2,2025-02-11_15h04.31.313,comp,2024.2.5,61.29290301839092,2025-02-11 15h04.38.444370 -0500,
72,72,0,filler_random,None,None,None,None,None,None,None,None,None,None,3,2.9268956184387207,None,,,,,0,0,0,0,0,72,72,146,395.1237187385559,,,,,,,,,,,,,,,,,,,,,,,,,,,,,,,,,,,,,,,,,,,,,,,,,,,,,,,,,,,,,,,,,,,,,,,,,,,,,,,,,85.08843676533829,67.37712981997299,158.20544078546342,63.585367909251104,76.46876943386503,186.8624406924686,4.0,4.1,-161,-276,0,10,221,-274,395.108815908432,395.1088981628418,395.1122727394104,395.1237187385559,395.26575779914856,395.26575779914856,395.26575779914856,395.26575779914856,395.26575779914856,395.26575779914856,395.26575779914856,398.06538581848145,3,2.9268956184387207,None,,,,,,,,,,,,,,,,,,4,2,2025-02-11_15h04.31.313,comp,2024.2.5,61.29290301839092,2025-02-11 15h04.38.444370 -0500,
73,73,0,critical,dhw,60.0,4.0,upper,100.0,100.0,200.0,125.0,125.0,200.0,2,2.7049431800842285,None,,,,,0,0,0,0,0,73,73,59,398.08150148391724,,,,,,,,,,,,,,,,,,,,,,,,,,,,,,,,,,,,,,,,,,,,,,,,,,,,,,,,,,,,,,,,,,,,,,,,,,,,,,,,,100.0,100.0,200.0,125.0,125.0,200.0,4.0,4.1,-208,-258,0,2,258,-251,398.06694531440735,398.06706070899963,398.0703122615814,398.08150148391724,398.23323678970337,398.23323678970337,398.23323678970337,398.23323678970337,398.23323678970337,398.23323678970337,398.23323678970337,400.7994701862335,2,2.7049431800842285,None,,,,,,,,,,,,,,,,,,4,2,2025-02-11_15h04.31.313,comp,2024.2.5,61.29290301839092,2025-02-11 15h04.38.444370 -0500,
74,74,0,critical,hdw,60.0,2.1,upper,200.0,125.0,100.0,100.0,125.0,200.0,1,5.747750520706177,None,,,,,0,0,0,0,0,74,74,47,400.81457328796387,,,,,,,,,,,,,,,,,,,,,,,,,,,,,,,,,,,,,,,,,,,,,,,,,,,,,,,,,,,,,,,,,,,,,,,,,,,,,,,,,200.0,125.0,100.0,100.0,125.0,200.0,2.1,2.12,-208,-280,0,-256,246,275,400.8009648323059,400.8010654449463,400.8042891025543,400.81457328796387,400.9683427810669,400.9683427810669,400.9683427810669,400.9683427810669,400.9683427810669,400.9683427810669,400.9683427810669,406.5728256702423,1,5.747750520706177,None,,,,,,,,,,,,,,,,,,4,2,2025-02-11_15h04.31.313,comp,2024.2.5,61.29290301839092,2025-02-11 15h04.38.444370 -0500,
75,75,0,critical,dhw,60.0,2.1,upper,100.0,100.0,200.0,125.0,125.0,200.0,2,3.254218101501465,None,,,,,0,0,0,0,0,75,75,3,406.58833932876587,,,,,,,,,,,,,,,,,,,,,,,,,,,,,,,,,,,,,,,,,,,,,,,,,,,,,,,,,,,,,,,,,,,,,,,,,,,,,,,,,100.0,100.0,200.0,125.0,125.0,200.0,2.1,2.11,-208,283,0,277,258,-253,406.5745244026184,406.57460618019104,406.57762694358826,406.58833932876587,406.7327239513397,406.7327239513397,406.7327239513397,406.7327239513397,406.7327239513397,406.7327239513397,406.7327239513397,409.8517827987671,2,3.254218101501465,None,,,,,,,,,,,,,,,,,,4,2,2025-02-11_15h04.31.313,comp,2024.2.5,61.29290301839092,2025-02-11 15h04.38.444370 -0500,
76,76,0,critical,wdh,60.0,4.0,upper,125.0,200.0,100.0,100.0,200.0,125.0,1,2.4788951873779297,None,,,,,0,0,0,0,0,76,76,83,409.86829686164856,,,,,,,,,,,,,,,,,,,,,,,,,,,,,,,,,,,,,,,,,,,,,,,,,,,,,,,,,,,,,,,,,,,,,,,,,,,,,,,,,125.0,200.0,100.0,100.0,200.0,125.0,4.0,4.1,-246,-278,0,-20,208,-286,409.85337829589844,409.8534572124481,409.85662961006165,409.86829686164856,410.0275025367737,410.0275025367737,410.0275025367737,410.0275025367737,410.0275025367737,410.0275025367737,410.0275025367737,412.3542058467865,1,2.4788951873779297,None,,,,,,,,,,,,,,,,,,4,2,2025-02-11_15h04.31.313,comp,2024.2.5,61.29290301839092,2025-02-11 15h04.38.444370 -0500,
77,77,0,critical,wdh,45.0,4.0,upper,125.0,200.0,117.0,117.0,200.0,125.0,1,4.517895698547363,None,,,,,0,0,0,0,0,77,77,77,412.37222623825073,,,,,,,,,,,,,,,,,,,,,,,,,,,,,,,,,,,,,,,,,,,,,,,,,,,,,,,,,,,,,,,,,,,,,,,,,,,,,,,,,125.0,200.0,117.0,117.0,200.0,125.0,4.0,4.2,-254,-19,0,-290,217,-19,412.3557200431824,412.35580039024353,412.35913825035095,412.37222623825073,412.5194420814514,412.5194420814514,412.5194420814514,412.5194420814514,412.5194420814514,412.5194420814514,412.5194420814514,416.904723405838,1,4.517895698547363,None,,,,,,,,,,,,,,,,,,4,2,2025-02-11_15h04.31.313,comp,2024.2.5,61.29290301839092,2025-02-11 15h04.38.444370 -0500,
78,78,0,critical,whd,45.0,2.1,lower,57.0,133.0,133.0,57.0,65.0,65.0,2,2.258324384689331,None,,,,,0,0,0,0,0,78,78,12,416.92034935951233,,,,,,,,,,,,,,,,,,,,,,,,,,,,,,,,,,,,,,,,,,,,,,,,,,,,,,,,,,,,,,,,,,,,,,,,,,,,,,,,,57.0,133.0,133.0,57.0,65.0,65.0,2.1,2.11,-191,288,0,282,157,-276,416.90627551078796,416.9063539505005,416.9099187850952,416.92034935951233,417.0719611644745,417.0719611644745,417.0719611644745,417.0719611644745,417.0719611644745,417.0719611644745,417.0719611644745,419.1967887878418,2,2.258324384689331,None,,,,,,,,,,,,,,,,,,4,2,2025-02-11_15h04.31.313,comp,2024.2.5,61.29290301839092,2025-02-11 15h04.38.444370 -0500,
79,79,0,critical,whd,45.0,2.1,lower,57.0,133.0,133.0,57.0,65.0,65.0,1,2.147705316543579,None,,,,,0,0,0,0,0,79,79,36,419.21420407295227,,,,,,,,,,,,,,,,,,,,,,,,,,,,,,,,,,,,,,,,,,,,,,,,,,,,,,,,,,,,,,,,,,,,,,,,,,,,,,,,,57.0,133.0,133.0,57.0,65.0,65.0,2.1,2.11,-191,272,0,253,157,-251,419.1983892917633,419.1984689235687,419.20152974128723,419.21420407295227,419.3552198410034,419.3552198410034,419.3552198410034,419.3552198410034,419.3552198410034,419.3552198410034,419.3552198410034,421.38063955307007,1,2.147705316543579,None,,,,,,,,,,,,,,,,,,4,2,2025-02-11_15h04.31.313,comp,2024.2.5,61.29290301839092,2025-02-11 15h04.38.444370 -0500,
80,80,0,critical,hdw,60.0,4.0,lower,133.0,57.0,55.0,55.0,57.0,133.0,3,2.108229398727417,None,,,,,0,0,0,0,0,80,80,118,421.39793610572815,,,,,,,,,,,,,,,,,,,,,,,,,,,,,,,,,,,,,,,,,,,,,,,,,,,,,,,,,,,,,,,,,,,,,,,,,,,,,,,,,133.0,57.0,55.0,55.0,57.0,133.0,4.0,4.2,-152,-3,0,-251,190,-18,421.3821921348572,421.3822717666626,421.38531255722046,421.39793610572815,421.5406906604767,421.5406906604767,421.5406906604767,421.5406906604767,421.5406906604767,421.5406906604767,421.5406906604767,423.5091941356659,3,2.108229398727417,None,,,,,,,,,,,,,,,,,,4,2,2025-02-11_15h04.31.313,comp,2024.2.5,61.29290301839092,2025-02-11 15h04.38.444370 -0500,
81,81,0,critical,dwh,45.0,2.1,lower,65.0,65.0,57.0,133.0,133.0,57.0,2,2.2009360790252686,None,,,,,0,0,0,0,0,81,81,4,423.52916526794434,,,,,,,,,,,,,,,,,,,,,,,,,,,,,,,,,,,,,,,,,,,,,,,,,,,,,,,,,,,,,,,,,,,,,,,,,,,,,,,,,65.0,65.0,57.0,133.0,133.0,57.0,2.1,2.12,-195,-267,0,-260,191,252,423.5109441280365,423.511070728302,423.5149326324463,423.52916526794434,423.6738259792328,423.6738259792328,423.6738259792328,423.6738259792328,423.6738259792328,423.6738259792328,423.6738259792328,425.7415940761566,2,2.2009360790252686,None,,,,,,,,,,,,,,,,,,4,2,2025-02-11_15h04.31.313,comp,2024.2.5,61.29290301839092,2025-02-11 15h04.38.444370 -0500,
82,82,0,filler_random,None,None,None,None,None,None,None,None,None,None,3,4.508141279220581,None,,,,,0,0,0,0,0,82,82,164,425.75835371017456,,,,,,,,,,,,,,,,,,,,,,,,,,,,,,,,,,,,,,,,,,,,,,,,,,,,,,,,,,,,,,,,,,,,,,,,,,,,,,,,,157.5752735157075,168.01081332806513,100.03748564711532,96.99386577512817,152.22831042536407,182.62771039850452,1.0,1.2,-229,14,0,-16,236,12,425.7435734272003,425.7436566352844,425.7473957538605,425.75835371017456,425.90840888023376,425.90840888023376,425.90840888023376,425.90840888023376,425.90840888023376,425.90840888023376,425.90840888023376,430.2751159667969,3,4.508141279220581,None,,,,,,,,,,,,,,,,,,4,2,2025-02-11_15h04.31.313,comp,2024.2.5,61.29290301839092,2025-02-11 15h04.38.444370 -0500,
83,83,0,critical,hdw,45.0,4.0,upper,200.0,125.0,117.0,117.0,125.0,200.0,3,6.349863052368164,None,,,,,0,0,0,0,0,83,83,113,430.2916462421417,,,,,,,,,,,,,,,,,,,,,,,,,,,,,,,,,,,,,,,,,,,,,,,,,,,,,,,,,,,,,,,,,,,,,,,,,,,,,,,,,200.0,125.0,117.0,117.0,125.0,200.0,4.0,4.1,-217,-263,0,2,254,-274,430.2766273021698,430.27670669555664,430.2800350189209,430.2916462421417,430.4418351650238,430.4418351650238,430.4418351650238,430.4418351650238,430.4418351650238,430.4418351650238,430.4418351650238,436.64401960372925,3,6.349863052368164,None,,,,,,,,,,,,,,,,,,4,2,2025-02-11_15h04.31.313,comp,2024.2.5,61.29290301839092,2025-02-11 15h04.38.444370 -0500,
84,84,0,critical,dhw,60.0,1.0,lower,55.0,55.0,133.0,57.0,57.0,133.0,3,3.478308916091919,None,,,,,0,0,0,0,0,84,84,54,436.6601538658142,,,,,,,,,,,,,,,,,,,,,,,,,,,,,,,,,,,,,,,,,,,,,,,,,,,,,,,,,,,,,,,,,,,,,,,,,,,,,,,,,55.0,55.0,133.0,57.0,57.0,133.0,1.0,1.1,-632,253,-480,253,-289,260,436.6455774307251,436.64565873146057,436.64920806884766,436.6601538658142,436.80885767936707,436.80885767936707,436.80885767936707,436.80885767936707,436.80885767936707,436.80885767936707,436.80885767936707,440.1447808742523,3,3.478308916091919,None,,,,,,,,,,,,,,,,,,4,2,2025-02-11_15h04.31.313,comp,2024.2.5,61.29290301839092,2025-02-11 15h04.38.444370 -0500,
85,85,0,critical,dwh,60.0,1.0,lower,55.0,55.0,57.0,133.0,133.0,57.0,2,1.217139720916748,None,,,,,0,0,0,0,0,85,85,66,440.1610858440399,,,,,,,,,,,,,,,,,,,,,,,,,,,,,,,,,,,,,,,,,,,,,,,,,,,,,,,,,,,,,,,,,,,,,,,,,,,,,,,,,55.0,55.0,57.0,133.0,133.0,57.0,1.0,1.1,-670,257,-480,265,-289,279,440.1464273929596,440.1465389728546,440.1502375602722,440.1610858440399,440.3116524219513,440.3116524219513,440.3116524219513,440.3116524219513,440.3116524219513,440.3116524219513,440.3116524219513,441.3821427822113,2,1.217139720916748,None,,,,,,,,,,,,,,,,,,4,2,2025-02-11_15h04.31.313,comp,2024.2.5,61.29290301839092,2025-02-11 15h04.38.444370 -0500,
86,86,0,filler_random,None,None,None,None,None,None,None,None,None,None,3,3.03434419631958,None,,,,,0,0,0,0,0,86,86,157,441.39962673187256,,,,,,,,,,,,,,,,,,,,,,,,,,,,,,,,,,,,,,,,,,,,,,,,,,,,,,,,,,,,,,,,,,,,,,,,,,,,,,,,,146.57841374981342,107.95314716554778,72.0983349822462,87.47256941545321,98.49806554377368,172.36696783640946,1.0,1.3,286,-277,480,-260,706,-288,441.38428473472595,441.3843665122986,441.3878846168518,441.39962673187256,441.54956912994385,441.54956912994385,441.54956912994385,441.54956912994385,441.54956912994385,441.54956912994385,441.54956912994385,444.4393708705902,3,3.03434419631958,None,,,,,,,,,,,,,,,,,,4,2,2025-02-11_15h04.31.313,comp,2024.2.5,61.29290301839092,2025-02-11 15h04.38.444370 -0500,
87,87,0,catch,None,None,None,None,None,None,None,None,None,None,1,1.0676655769348145,None,,,,,0,0,0,0,0,87,87,120,444.45637011528015,,,,,,,,,,,,,,,,,,,,,,,,,,,,,,,,,,,,,,,,,,,,,,,,,,,,,,,,,,,,,,,,,,,,,,,,,,,,,,,,,161,164,80,110,100,90,3.0,3.1,-233,260,0,12,196,-282,444.4414167404175,444.44149923324585,444.4445559978485,444.45637011528015,444.59614539146423,444.59614539146423,444.59614539146423,444.59614539146423,444.59614539146423,444.59614539146423,444.59614539146423,445.5267412662506,1,1.0676655769348145,None,,,,,,,,,,,,,,,,,,4,2,2025-02-11_15h04.31.313,comp,2024.2.5,61.29290301839092,2025-02-11 15h04.38.444370 -0500,
88,88,0,critical,dwh,60.0,1.0,upper,100.0,100.0,125.0,200.0,200.0,125.0,2,2.4649507999420166,None,,,,,0,0,0,0,0,88,88,67,445.5442011356354,,,,,,,,,,,,,,,,,,,,,,,,,,,,,,,,,,,,,,,,,,,,,,,,,,,,,,,,,,,,,,,,,,,,,,,,,,,,,,,,,100.0,100.0,125.0,200.0,200.0,125.0,1.0,1.2,-246,12,0,10,258,-13,445.52833127975464,445.52841114997864,445.53146862983704,445.5442011356354,445.6938738822937,445.6938738822937,445.6938738822937,445.6938738822937,445.6938738822937,445.6938738822937,445.6938738822937,448.02253103256226,2,2.4649507999420166,None,,,,,,,,,,,,,,,,,,4,2,2025-02-11_15h04.31.313,comp,2024.2.5,61.29290301839092,2025-02-11 15h04.38.444370 -0500,
89,89,0,critical,wdh,45.0,2.1,lower,57.0,133.0,65.0,65.0,133.0,57.0,3,3.4426474571228027,None,,,,,0,0,0,0,0,89,89,32,448.0386846065521,,,,,,,,,,,,,,,,,,,,,,,,,,,,,,,,,,,,,,,,,,,,,,,,,,,,,,,,,,,,,,,,,,,,,,,,,,,,,,,,,57.0,133.0,65.0,65.0,133.0,57.0,2.1,2.12,-195,-278,0,-271,157,275,448.0242123603821,448.02429246902466,448.02755784988403,448.0386846065521,448.1786961555481,448.1786961555481,448.1786961555481,448.1786961555481,448.1786961555481,448.1786961555481,448.1786961555481,451.49241518974304,3,3.4426474571228027,None,,,,,,,,,,,,,,,,,,4,2,2025-02-11_15h04.31.313,comp,2024.2.5,61.29290301839092,2025-02-11 15h04.38.444370 -0500,
90,90,0,filler_square,None,None,None,None,None,None,None,None,None,None,2,1.84922194480896,None,,,,,0,0,0,0,0,90,90,171,451.51208996772766,,,,,,,,,,,,,,,,,,,,,,,,,,,,,,,,,,,,,,,,,,,,,,,,,,,,,,,,,,,,,,,,,,,,,,,,,,,,,,,,,118.78813242847778,99.84064084931283,142.07374316398446,142.07374316398446,93.69165230046276,118.01233033760184,2.2,2.22,-217,282,0,-282,226,-268,451.4942147731781,451.4942922592163,451.4973073005676,451.51208996772766,451.6484389305115,451.6484389305115,451.6484389305115,451.6484389305115,451.6484389305115,451.6484389305115,451.6484389305115,453.3673846721649,2,1.84922194480896,None,,,,,,,,,,,,,,,,,,4,2,2025-02-11_15h04.31.313,comp,2024.2.5,61.29290301839092,2025-02-11 15h04.38.444370 -0500,
91,91,0,filler_square,None,None,None,None,None,None,None,None,None,None,3,3.4396414756774902,None,,,,,0,0,0,0,0,91,91,177,453.38604831695557,,,,,,,,,,,,,,,,,,,,,,,,,,,,,,,,,,,,,,,,,,,,,,,,,,,,,,,,,,,,,,,,,,,,,,,,,,,,,,,,,143.4955463506673,155.09045794236405,94.08634347325162,117.36604832354334,193.66404032012545,193.66404032012545,2.1,2.12,-232,-283,0,-280,252,252,453.3694519996643,453.3695363998413,453.3729372024536,453.38604831695557,453.5322096347809,453.5322096347809,453.5322096347809,453.5322096347809,453.5322096347809,453.5322096347809,453.5322096347809,456.83232498168945,3,3.4396414756774902,None,,,,,,,,,,,,,,,,,,4,2,2025-02-11_15h04.31.313,comp,2024.2.5,61.29290301839092,2025-02-11 15h04.38.444370 -0500,
92,92,0,critical,hwd,45.0,1.0,lower,133.0,57.0,57.0,133.0,65.0,65.0,2,5.616297483444214,None,,,,,0,0,0,0,0,92,92,96,456.849262714386,,,,,,,,,,,,,,,,,,,,,,,,,,,,,,,,,,,,,,,,,,,,,,,,,,,,,,,,,,,,,,,,,,,,,,,,,,,,,,,,,133.0,57.0,57.0,133.0,65.0,65.0,1.0,1.3,289,-265,480,-276,675,-259,456.833927154541,456.8340473175049,456.8375289440155,456.849262714386,457.0032002925873,457.0032002925873,457.0032002925873,457.0032002925873,457.0032002925873,457.0032002925873,457.0032002925873,462.4677312374115,2,5.616297483444214,None,,,,,,,,,,,,,,,,,,4,2,2025-02-11_15h04.31.313,comp,2024.2.5,61.29290301839092,2025-02-11 15h04.38.444370 -0500,
93,93,0,catch,None,None,None,None,None,None,None,None,None,None,3,2.469088554382324,None,,,,,0,0,0,0,0,93,93,126,462.4836781024933,,,,,,,,,,,,,,,,,,,,,,,,,,,,,,,,,,,,,,,,,,,,,,,,,,,,,,,,,,,,,,,,,,,,,,,,,,,,,,,,,85,105,86,104,188,137,4.0,4.1,-200,-255,0,11,216,-254,462.4696671962738,462.4697480201721,462.47308468818665,462.4836781024933,462.6306025981903,462.6306025981903,462.6306025981903,462.6306025981903,462.6306025981903,462.6306025981903,462.6306025981903,464.96790528297424,3,2.469088554382324,None,,,,,,,,,,,,,,,,,,4,2,2025-02-11_15h04.31.313,comp,2024.2.5,61.29290301839092,2025-02-11 15h04.38.444370 -0500,
94,94,0,critical,hdw,60.0,1.0,upper,200.0,125.0,100.0,100.0,125.0,200.0,3,15.570053339004517,None,,,,,0,0,0,0,0,94,94,115,464.9831657409668,,,,,,,,,,,,,,,,,,,,,,,,,,,,,,,,,,,,,,,,,,,,,,,,,,,,,,,,,,,,,,,,,,,,,,,,,,,,,,,,,200.0,125.0,100.0,100.0,125.0,200.0,1.0,1.1,-688,283,-480,287,-234,287,464.9694859981537,464.9695646762848,464.97266387939453,464.9831657409668,465.13923740386963,465.13923740386963,465.13923740386963,465.13923740386963,465.13923740386963,465.13923740386963,465.13923740386963,480.55640983581543,3,15.570053339004517,None,,,,,,,,,,,,,,,,,,4,2,2025-02-11_15h04.31.313,comp,2024.2.5,61.29290301839092,2025-02-11 15h04.38.444370 -0500,
95,95,0,filler_square,None,None,None,None,None,None,None,None,None,None,1,1.5880746841430664,None,,,,,0,0,0,0,0,95,95,182,480.5726251602173,,,,,,,,,,,,,,,,,,,,,,,,,,,,,,,,,,,,,,,,,,,,,,,,,,,,,,,,,,,,,,,,,,,,,,,,,,,,,,,,,150.02259344467876,150.02259344467876,127.61309829460578,72.24248858279378,121.20555535877531,67.57837023838883,2.1,2.11,-207,270,0,264,166,-262,480.5582640171051,480.5583438873291,480.561851978302,480.5726251602173,480.7213773727417,480.7213773727417,480.7213773727417,480.7213773727417,480.7213773727417,480.7213773727417,480.7213773727417,482.17423582077026,1,1.5880746841430664,None,,,,,,,,,,,,,,,,,,4,2,2025-02-11_15h04.31.313,comp,2024.2.5,61.29290301839092,2025-02-11 15h04.38.444370 -0500,
96,96,0,critical,wdh,45.0,1.0,lower,57.0,133.0,65.0,65.0,133.0,57.0,1,3.559918165206909,None,,,,,0,0,0,0,0,96,96,72,482.1944622993469,,,,,,,,,,,,,,,,,,,,,,,,,,,,,,,,,,,,,,,,,,,,,,,,,,,,,,,,,,,,,,,,,,,,,,,,,,,,,,,,,57.0,133.0,65.0,65.0,133.0,57.0,1.0,1.1,-675,253,-480,265,-323,272,482.1757731437683,482.17585158348083,482.1791641712189,482.1944622993469,482.3401036262512,482.3401036262512,482.3401036262512,482.3401036262512,482.3401036262512,482.3401036262512,482.3401036262512,485.75672602653503,1,3.559918165206909,None,,,,,,,,,,,,,,,,,,4,2,2025-02-11_15h04.31.313,comp,2024.2.5,61.29290301839092,2025-02-11 15h04.38.444370 -0500,
97,97,0,critical,hdw,60.0,3.0,lower,133.0,57.0,55.0,55.0,57.0,133.0,1,4.374347686767578,None,,,,,0,0,0,0,0,97,97,116,485.77780175209045,,,,,,,,,,,,,,,,,,,,,,,,,,,,,,,,,,,,,,,,,,,,,,,,,,,,,,,,,,,,,,,,,,,,,,,,,,,,,,,,,133.0,57.0,55.0,55.0,57.0,133.0,3.0,3.1,-152,282,0,-15,190,-272,485.75841760635376,485.7585027217865,485.7622320652008,485.77780175209045,485.9244294166565,485.9244294166565,485.9244294166565,485.9244294166565,485.9244294166565,485.9244294166565,485.9244294166565,490.1665804386139,1,4.374347686767578,None,,,,,,,,,,,,,,,,,,4,2,2025-02-11_15h04.31.313,comp,2024.2.5,61.29290301839092,2025-02-11 15h04.38.444370 -0500,
98,98,0,critical,whd,60.0,1.0,upper,125.0,200.0,200.0,125.0,100.0,100.0,1,2.521831512451172,None,,,,,0,0,0,0,0,98,98,91,490.183034658432,,,,,,,,,,,,,,,,,,,,,,,,,,,,,,,,,,,,,,,,,,,,,,,,,,,,,,,,,,,,,,,,,,,,,,,,,,,,,,,,,125.0,200.0,200.0,125.0,100.0,100.0,1.0,1.1,-738,252,-480,255,-272,276,490.16821670532227,490.16830015182495,490.1717131137848,490.183034658432,490.325471162796,490.325471162796,490.325471162796,490.325471162796,490.325471162796,490.325471162796,490.325471162796,492.71224188804626,1,2.521831512451172,None,,,,,,,,,,,,,,,,,,4,2,2025-02-11_15h04.31.313,comp,2024.2.5,61.29290301839092,2025-02-11 15h04.38.444370 -0500,
99,99,0,critical,hwd,60.0,1.0,lower,133.0,57.0,57.0,133.0,55.0,55.0,2,2.599167585372925,None,,,,,0,0,0,0,0,99,99,102,492.728862285614,,,,,,,,,,,,,,,,,,,,,,,,,,,,,,,,,,,,,,,,,,,,,,,,,,,,,,,,,,,,,,,,,,,,,,,,,,,,,,,,,133.0,57.0,57.0,133.0,55.0,55.0,1.0,1.1,-671,280,-480,262,-290,260,492.7139675617218,492.7140815258026,492.71810007095337,492.728862285614,492.87650775909424,492.87650775909424,492.87650775909424,492.87650775909424,492.87650775909424,492.87650775909424,492.87650775909424,495.3454706668854,2,2.599167585372925,None,,,,,,,,,,,,,,,,,,4,2,2025-02-11_15h04.31.313,comp,2024.2.5,61.29290301839092,2025-02-11 15h04.38.444370 -0500,
100,100,0,catch,None,None,None,None,None,None,None,None,None,None,3,1.1981167793273926,None,,,,,0,0,0,0,0,100,100,124,495.3617868423462,,,,,,,,,,,,,,,,,,,,,,,,,,,,,,,,,,,,,,,,,,,,,,,,,,,,,,,,,,,,,,,,,,,,,,,,,,,,,,,,,82,108,119,71,172,153,2.1,2.11,-186,282,0,267,208,-267,495.3480999469757,495.3482344150543,495.35157346725464,495.3617868423462,495.51073837280273,495.51073837280273,495.51073837280273,495.51073837280273,495.51073837280273,495.51073837280273,495.51073837280273,496.5768585205078,3,1.1981167793273926,None,,,,,,,,,,,,,,,,,,4,2,2025-02-11_15h04.31.313,comp,2024.2.5,61.29290301839092,2025-02-11 15h04.38.444370 -0500,
101,101,0,filler_square,None,None,None,None,None,None,None,None,None,None,3,4.516792297363281,None,,,,,0,0,0,0,0,101,101,190,496.5951101779938,,,,,,,,,,,,,,,,,,,,,,,,,,,,,,,,,,,,,,,,,,,,,,,,,,,,,,,,,,,,,,,,,,,,,,,,,,,,,,,,,65.68530135873979,62.99663117491065,62.456047227431796,63.32122378488389,74.77462461616986,74.77462461616986,1.0,1.2,-159,-13,0,-5,165,14,496.5786600112915,496.5787377357483,496.581912279129,496.5951101779938,496.7447307109833,496.7447307109833,496.7447307109833,496.7447307109833,496.7447307109833,496.7447307109833,496.7447307109833,501.1282513141632,3,4.516792297363281,None,,,,,,,,,,,,,,,,,,4,2,2025-02-11_15h04.31.313,comp,2024.2.5,61.29290301839092,2025-02-11 15h04.38.444370 -0500,
102,102,0,critical,dhw,60.0,2.1,upper,100.0,100.0,200.0,125.0,125.0,200.0,3,13.088143825531006,None,,,,,0,0,0,0,0,102,102,27,501.1446442604065,,,,,,,,,,,,,,,,,,,,,,,,,,,,,,,,,,,,,,,,,,,,,,,,,,,,,,,,,,,,,,,,,,,,,,,,,,,,,,,,,100.0,100.0,200.0,125.0,125.0,200.0,2.1,2.12,-208,-254,0,-274,258,265,501.12985348701477,501.12994384765625,501.1334533691406,501.1446442604065,501.2962062358856,501.2962062358856,501.2962062358856,501.2962062358856,501.2962062358856,501.2962062358856,501.2962062358856,514.2372105121613,3,13.088143825531006,None,,,,,,,,,,,,,,,,,,4,2,2025-02-11_15h04.31.313,comp,2024.2.5,61.29290301839092,2025-02-11 15h04.38.444370 -0500,
103,103,0,critical,wdh,45.0,3.0,lower,57.0,133.0,65.0,65.0,133.0,57.0,1,10.771129608154297,None,,,,,0,0,0,0,0,103,103,74,514.2538583278656,,,,,,,,,,,,,,,,,,,,,,,,,,,,,,,,,,,,,,,,,,,,,,,,,,,,,,,,,,,,,,,,,,,,,,,,,,,,,,,,,57.0,133.0,65.0,65.0,133.0,57.0,3.0,3.2,-195,-280,0,-18,157,287,514.238746881485,514.2388305664062,514.2428557872772,514.2538583278656,514.401260137558,514.401260137558,514.401260137558,514.401260137558,514.401260137558,514.401260137558,514.401260137558,525.0337445735931,1,10.771129608154297,None,,,,,,,,,,,,,,,,,,4,2,2025-02-11_15h04.31.313,comp,2024.2.5,61.29290301839092,2025-02-11 15h04.38.444370 -0500,
104,104,0,filler_random,None,None,None,None,None,None,None,None,None,None,3,3.3551294803619385,None,,,,,0,0,0,0,0,104,104,168,525.0544743537903,,,,,,,,,,,,,,,,,,,,,,,,,,,,,,,,,,,,,,,,,,,,,,,,,,,,,,,,,,,,,,,,,,,,,,,,,,,,,,,,,90.67684546882316,128.07782666656834,60.32199244969257,165.27681175785975,167.59231477205785,111.84536568855883,3.0,3.1,-243,267,0,9,235,-279,525.0356345176697,525.0357766151428,525.0391795635223,525.0544743537903,525.2023334503174,525.2023334503174,525.2023334503174,525.2023334503174,525.2023334503174,525.2023334503174,525.2023334503174,528.4209613800049,3,3.3551294803619385,None,,,,,,,,,,,,,,,,,,4,2,2025-02-11_15h04.31.313,comp,2024.2.5,61.29290301839092,2025-02-11 15h04.38.444370 -0500,
105,105,0,critical,dwh,45.0,2.1,lower,65.0,65.0,57.0,133.0,133.0,57.0,2,1.8825976848602295,None,,,,,0,0,0,0,0,105,105,28,528.4365978240967,,,,,,,,,,,,,,,,,,,,,,,,,,,,,,,,,,,,,,,,,,,,,,,,,,,,,,,,,,,,,,,,,,,,,,,,,,,,,,,,,65.0,65.0,57.0,133.0,133.0,57.0,2.1,2.12,-195,-259,0,-251,191,264,528.4225578308105,528.4226393699646,528.4258472919464,528.4365978240967,528.5917513370514,528.5917513370514,528.5917513370514,528.5917513370514,528.5917513370514,528.5917513370514,528.5917513370514,530.322242975235,2,1.8825976848602295,None,,,,,,,,,,,,,,,,,,4,2,2025-02-11_15h04.31.313,comp,2024.2.5,61.29290301839092,2025-02-11 15h04.38.444370 -0500,
106,106,0,critical,dwh,45.0,4.0,upper,117.0,117.0,125.0,200.0,200.0,125.0,2,2.130704164505005,None,,,,,0,0,0,0,0,106,106,65,530.3402645587921,,,,,,,,,,,,,,,,,,,,,,,,,,,,,,,,,,,,,,,,,,,,,,,,,,,,,,,,,,,,,,,,,,,,,,,,,,,,,,,,,117.0,117.0,125.0,200.0,200.0,125.0,4.0,4.1,-254,-259,0,-9,258,-272,530.3238809108734,530.3239622116089,530.3271417617798,530.3402645587921,530.4867124557495,530.4867124557495,530.4867124557495,530.4867124557495,530.4867124557495,530.4867124557495,530.4867124557495,532.4873659610748,2,2.130704164505005,None,,,,,,,,,,,,,,,,,,4,2,2025-02-11_15h04.31.313,comp,2024.2.5,61.29290301839092,2025-02-11 15h04.38.444370 -0500,
107,107,0,critical,hdw,45.0,1.0,upper,200.0,125.0,117.0,117.0,125.0,200.0,1,1.9756922721862793,None,,,,,0,0,0,0,0,107,107,109,532.5032773017883,,,,,,,,,,,,,,,,,,,,,,,,,,,,,,,,,,,,,,,,,,,,,,,,,,,,,,,,,,,,,,,,,,,,,,,,,,,,,,,,,200.0,125.0,117.0,117.0,125.0,200.0,1.0,1.3,263,-284,480,-278,734,-281,532.4889514446259,532.489057302475,532.492312669754,532.5032773017883,532.6504487991333,532.6504487991333,532.6504487991333,532.6504487991333,532.6504487991333,532.6504487991333,532.6504487991333,534.4888713359833,1,1.9756922721862793,None,,,,,,,,,,,,,,,,,,4,2,2025-02-11_15h04.31.313,comp,2024.2.5,61.29290301839092,2025-02-11 15h04.38.444370 -0500,
108,108,0,filler_random,None,None,None,None,None,None,None,None,None,None,1,1.5103516578674316,None,,,,,0,0,0,0,0,108,108,154,534.5047218799591,,,,,,,,,,,,,,,,,,,,,,,,,,,,,,,,,,,,,,,,,,,,,,,,,,,,,,,,,,,,,,,,,,,,,,,,,,,,,,,,,153.86702211571927,163.92669965079784,119.82599104223797,148.43088942964562,88.38137156580589,129.14097230267356,3.0,3.1,-252,260,0,-8,235,-283,534.4905889034271,534.4906697273254,534.4938979148865,534.5047218799591,534.6570827960968,534.6570827960968,534.6570827960968,534.6570827960968,534.6570827960968,534.6570827960968,534.6570827960968,536.0272793769836,1,1.5103516578674316,None,,,,,,,,,,,,,,,,,,4,2,2025-02-11_15h04.31.313,comp,2024.2.5,61.29290301839092,2025-02-11 15h04.38.444370 -0500,
109,109,0,critical,hwd,45.0,2.1,upper,200.0,125.0,125.0,200.0,117.0,117.0,2,4.24705696105957,None,,,,,0,0,0,0,0,109,109,17,536.0484783649445,,,,,,,,,,,,,,,,,,,,,,,,,,,,,,,,,,,,,,,,,,,,,,,,,,,,,,,,,,,,,,,,,,,,,,,,,,,,,,,,,200.0,125.0,125.0,200.0,117.0,117.0,2.1,2.12,-258,-264,0,-254,254,258,536.0289816856384,536.0291533470154,536.0326046943665,536.0484783649445,536.1950976848602,536.1950976848602,536.1950976848602,536.1950976848602,536.1950976848602,536.1950976848602,536.1950976848602,540.300862789154,2,4.24705696105957,None,,,,,,,,,,,,,,,,,,4,2,2025-02-11_15h04.31.313,comp,2024.2.5,61.29290301839092,2025-02-11 15h04.38.444370 -0500,
110,110,0,filler_square,None,None,None,None,None,None,None,None,None,None,3,9.936166524887085,None,,,,,0,0,0,0,0,110,110,199,540.3189334869385,,,,,,,,,,,,,,,,,,,,,,,,,,,,,,,,,,,,,,,,,,,,,,,,,,,,,,,,,,,,,,,,,,,,,,,,,,,,,,,,,65.57673480751163,65.57673480751163,60.257089490598645,57.758532336320734,64.83031495110829,57.357460523704596,3.0,3.1,-158,267,0,-13,154,-283,540.3027460575104,540.3028273582458,540.3058092594147,540.3189334869385,540.4573967456818,540.4573967456818,540.4573967456818,540.4573967456818,540.4573967456818,540.4573967456818,540.4573967456818,550.2581055164337,3,9.936166524887085,None,,,,,,,,,,,,,,,,,,4,2,2025-02-11_15h04.31.313,comp,2024.2.5,61.29290301839092,2025-02-11 15h04.38.444370 -0500,
111,111,0,critical,hwd,60.0,3.0,upper,200.0,125.0,125.0,200.0,100.0,100.0,2,5.219503402709961,None,,,,,0,0,0,0,0,111,111,105,550.2751350402832,,,,,,,,,,,,,,,,,,,,,,,,,,,,,,,,,,,,,,,,,,,,,,,,,,,,,,,,,,,,,,,,,,,,,,,,,,,,,,,,,200.0,125.0,125.0,200.0,100.0,100.0,3.0,3.1,-258,251,0,17,246,-250,550.2596964836121,550.2597985267639,550.2633647918701,550.2751350402832,550.4079043865204,550.4079043865204,550.4079043865204,550.4079043865204,550.4079043865204,550.4079043865204,550.4079043865204,555.5039763450623,2,5.219503402709961,None,,,,,,,,,,,,,,,,,,4,2,2025-02-11_15h04.31.313,comp,2024.2.5,61.29290301839092,2025-02-11 15h04.38.444370 -0500,
112,112,0,filler_random,None,None,None,None,None,None,None,None,None,None,1,4.97456169128418,None,,,,,0,0,0,0,0,112,112,133,555.5200409889221,,,,,,,,,,,,,,,,,,,,,,,,,,,,,,,,,,,,,,,,,,,,,,,,,,,,,,,,,,,,,,,,,,,,,,,,,,,,,,,,,148.19436039674312,139.0138341061192,138.5432697518089,75.93497871264347,79.16370217228254,196.20838013019377,2.2,2.22,-203,278,0,-281,232,-260,555.5057735443115,555.5058526992798,555.5089461803436,555.5200409889221,555.6614761352539,555.6614761352539,555.6614761352539,555.6614761352539,555.6614761352539,555.6614761352539,555.6614761352539,560.5153155326843,1,4.97456169128418,None,,,,,,,,,,,,,,,,,,4,2,2025-02-11_15h04.31.313,comp,2024.2.5,61.29290301839092,2025-02-11 15h04.38.444370 -0500,
113,113,0,critical,hdw,60.0,3.0,upper,200.0,125.0,100.0,100.0,125.0,200.0,3,3.064596652984619,None,,,,,0,0,0,0,0,113,113,117,560.5337510108948,,,,,,,,,,,,,,,,,,,,,,,,,,,,,,,,,,,,,,,,,,,,,,,,,,,,,,,,,,,,,,,,,,,,,,,,,,,,,,,,,200.0,125.0,100.0,100.0,125.0,200.0,3.0,3.1,-208,259,0,20,246,-252,560.5174567699432,560.5175938606262,560.5207433700562,560.5337510108948,560.6780848503113,560.6780848503113,560.6780848503113,560.6780848503113,560.6780848503113,560.6780848503113,560.6780848503113,563.6132884025574,3,3.064596652984619,None,,,,,,,,,,,,,,,,,,4,2,2025-02-11_15h04.31.313,comp,2024.2.5,61.29290301839092,2025-02-11 15h04.38.444370 -0500,
114,114,0,filler_square,None,None,None,None,None,None,None,None,None,None,1,2.265047550201416,None,,,,,0,0,0,0,0,114,114,207,563.629091501236,,,,,,,,,,,,,,,,,,,,,,,,,,,,,,,,,,,,,,,,,,,,,,,,,,,,,,,,,,,,,,,,,,,,,,,,,,,,,,,,,120.60781532391536,120.60781532391536,96.69955219782182,117.79627897724413,77.21607970482854,72.37923922913674,1.0,1.1,-695,272,-480,264,-289,277,563.6152465343475,563.6153256893158,563.6188385486603,563.629091501236,563.7787532806396,563.7787532806396,563.7787532806396,563.7787532806396,563.7787532806396,563.7787532806396,563.7787532806396,565.9067053794861,1,2.265047550201416,None,,,,,,,,,,,,,,,,,,4,2,2025-02-11_15h04.31.313,comp,2024.2.5,61.29290301839092,2025-02-11 15h04.38.444370 -0500,
115,115,0,filler_random,None,None,None,None,None,None,None,None,None,None,3,2.0745773315429688,None,,,,,0,0,0,0,0,115,115,160,565.923572063446,,,,,,,,,,,,,,,,,,,,,,,,,,,,,,,,,,,,,,,,,,,,,,,,,,,,,,,,,,,,,,,,,,,,,,,,,,,,,,,,,120.19437907109233,67.67438568463028,63.01148101716787,188.12933737477502,126.99582799959245,193.57437609560168,2.2,2.22,-224,250,0,-256,287,-271,565.9086406230927,565.9087660312653,565.9121158123016,565.923572063446,566.0667448043823,566.0667448043823,566.0667448043823,566.0667448043823,566.0667448043823,566.0667448043823,566.0667448043823,568.0155398845673,3,2.0745773315429688,None,,,,,,,,,,,,,,,,,,4,2,2025-02-11_15h04.31.313,comp,2024.2.5,61.29290301839092,2025-02-11 15h04.38.444370 -0500,
116,116,0,filler_square,None,None,None,None,None,None,None,None,None,None,1,3.022526979446411,None,,,,,0,0,0,0,0,116,116,173,568.0316781997681,,,,,,,,,,,,,,,,,,,,,,,,,,,,,,,,,,,,,,,,,,,,,,,,,,,,,,,,,,,,,,,,,,,,,,,,,,,,,,,,,179.20475681584253,179.20475681584253,76.03455236405031,64.01170443157437,57.8987482583632,141.91299727673737,3.0,3.2,-218,-270,0,6,199,279,568.0175518989563,568.0176310539246,568.021390914917,568.0316781997681,568.1691401004791,568.1691401004791,568.1691401004791,568.1691401004791,568.1691401004791,568.1691401004791,568.1691401004791,571.0662376880646,1,3.022526979446411,None,,,,,,,,,,,,,,,,,,4,2,2025-02-11_15h04.31.313,comp,2024.2.5,61.29290301839092,2025-02-11 15h04.38.444370 -0500,
117,117,0,critical,dhw,45.0,3.0,upper,117.0,117.0,200.0,125.0,125.0,200.0,2,5.860345363616943,None,,,,,0,0,0,0,0,117,117,51,571.0824024677277,,,,,,,,,,,,,,,,,,,,,,,,,,,,,,,,,,,,,,,,,,,,,,,,,,,,,,,,,,,,,,,,,,,,,,,,,,,,,,,,,117.0,117.0,200.0,125.0,125.0,200.0,3.0,3.1,-217,258,0,2,258,-284,571.067843914032,571.0679240226746,571.0721213817596,571.0824024677277,571.2325158119202,571.2325158119202,571.2325158119202,571.2325158119202,571.2325158119202,571.2325158119202,571.2325158119202,576.9539692401886,2,5.860345363616943,None,,,,,,,,,,,,,,,,,,4,2,2025-02-11_15h04.31.313,comp,2024.2.5,61.29290301839092,2025-02-11 15h04.38.444370 -0500,
118,118,0,critical,whd,60.0,2.1,upper,125.0,200.0,200.0,125.0,100.0,100.0,1,5.812817573547363,None,,,,,0,0,0,0,0,118,118,15,576.9697360992432,,,,,,,,,,,,,,,,,,,,,,,,,,,,,,,,,,,,,,,,,,,,,,,,,,,,,,,,,,,,,,,,,,,,,,,,,,,,,,,,,125.0,200.0,200.0,125.0,100.0,100.0,2.1,2.11,-258,258,0,252,208,-257,576.9555823802948,576.955664396286,576.9589824676514,576.9697360992432,577.1225745677948,577.1225745677948,577.1225745677948,577.1225745677948,577.1225745677948,577.1225745677948,577.1225745677948,582.7858595848083,1,5.812817573547363,None,,,,,,,,,,,,,,,,,,4,2,2025-02-11_15h04.31.313,comp,2024.2.5,61.29290301839092,2025-02-11 15h04.38.444370 -0500,
119,119,0,critical,hwd,60.0,2.1,upper,200.0,125.0,125.0,200.0,100.0,100.0,2,3.0131242275238037,None,,,,,0,0,0,0,0,119,119,19,582.8020837306976,,,,,,,,,,,,,,,,,,,,,,,,,,,,,,,,,,,,,,,,,,,,,,,,,,,,,,,,,,,,,,,,,,,,,,,,,,,,,,,,,200.0,125.0,125.0,200.0,100.0,100.0,2.1,2.12,-258,-257,0,-253,246,257,582.7875101566315,582.7876124382019,582.791188955307,582.8020837306976,582.953067779541,582.953067779541,582.953067779541,582.953067779541,582.953067779541,582.953067779541,582.953067779541,585.8207623958588,2,3.0131242275238037,None,,,,,,,,,,,,,,,,,,4,2,2025-02-11_15h04.31.313,comp,2024.2.5,61.29290301839092,2025-02-11 15h04.38.444370 -0500,
120,120,0,filler_square,None,None,None,None,None,None,None,None,None,None,2,1.7043018341064453,None,,,,,0,0,0,0,0,120,120,205,585.8373680114746,,,,,,,,,,,,,,,,,,,,,,,,,,,,,,,,,,,,,,,,,,,,,,,,,,,,,,,,,,,,,,,,,,,,,,,,,,,,,,,,,60.5570844324653,79.681406682561,95.90275948506223,95.90275948506223,63.381428679921605,72.46302133365609,4.0,4.2,-184,-8,0,-271,180,-10,585.8225297927856,585.8226528167725,585.8257555961609,585.8373680114746,585.9863963127136,585.9863963127136,585.9863963127136,585.9863963127136,585.9863963127136,585.9863963127136,585.9863963127136,587.5559508800507,2,1.7043018341064453,None,,,,,,,,,,,,,,,,,,4,2,2025-02-11_15h04.31.313,comp,2024.2.5,61.29290301839092,2025-02-11 15h04.38.444370 -0500,
121,121,0,filler_square,None,None,None,None,None,None,None,None,None,None,3,1.4666097164154053,None,,,,,0,0,0,0,0,121,121,192,587.5716547966003,,,,,,,,,,,,,,,,,,,,,,,,,,,,,,,,,,,,,,,,,,,,,,,,,,,,,,,,,,,,,,,,,,,,,,,,,,,,,,,,,74.31860693538356,97.12090051972574,105.3323348164994,190.70058265967592,198.93786441256404,198.93786441256404,2.1,2.11,-240,277,0,284,291,-256,587.557939529419,587.5580461025238,587.561365365982,587.5716547966003,587.7178685665131,587.7178685665131,587.7178685665131,587.7178685665131,587.7178685665131,587.7178685665131,587.7178685665131,589.0406847000122,3,1.4666097164154053,None,,,,,,,,,,,,,,,,,,4,2,2025-02-11_15h04.31.313,comp,2024.2.5,61.29290301839092,2025-02-11 15h04.38.444370 -0500,
122,122,0,filler_square,None,None,None,None,None,None,None,None,None,None,1,14.883332967758179,None,,,,,0,0,0,0,0,122,122,183,589.0577700138092,,,,,,,,,,,,,,,,,,,,,,,,,,,,,,,,,,,,,,,,,,,,,,,,,,,,,,,,,,,,,,,,,,,,,,,,,,,,,,,,,60.79906127466469,57.66252810248856,60.154453579380615,58.466014905128894,61.589525505985506,61.589525505985506,1.0,1.1,-634,277,-480,279,-324,264,589.042608499527,589.0427169799805,589.0466778278351,589.0577700138092,589.2048008441925,589.2048008441925,589.2048008441925,589.2048008441925,589.2048008441925,589.2048008441925,589.2048008441925,603.9561929702759,1,14.883332967758179,None,,,,,,,,,,,,,,,,,,4,2,2025-02-11_15h04.31.313,comp,2024.2.5,61.29290301839092,2025-02-11 15h04.38.444370 -0500,
123,123,0,critical,hwd,45.0,1.0,upper,200.0,125.0,125.0,200.0,117.0,117.0,2,6.896599769592285,None,,,,,0,0,0,0,0,123,123,97,603.9730379581451,,,,,,,,,,,,,,,,,,,,,,,,,,,,,,,,,,,,,,,,,,,,,,,,,,,,,,,,,,,,,,,,,,,,,,,,,,,,,,,,,200.0,125.0,125.0,200.0,117.0,117.0,1.0,1.2,-258,18,0,8,254,-2,603.957808971405,603.9578857421875,603.9614973068237,603.9730379581451,604.1221144199371,604.1221144199371,604.1221144199371,604.1221144199371,604.1221144199371,604.1221144199371,604.1221144199371,610.8778884410858,2,6.896599769592285,None,,,,,,,,,,,,,,,,,,4,2,2025-02-11_15h04.31.313,comp,2024.2.5,61.29290301839092,2025-02-11 15h04.38.444370 -0500,
124,124,0,critical,hdw,45.0,3.0,lower,133.0,57.0,65.0,65.0,57.0,133.0,3,3.846052885055542,None,,,,,0,0,0,0,0,124,124,110,610.8949358463287,,,,,,,,,,,,,,,,,,,,,,,,,,,,,,,,,,,,,,,,,,,,,,,,,,,,,,,,,,,,,,,,,,,,,,,,,,,,,,,,,133.0,57.0,65.0,65.0,57.0,133.0,3.0,3.1,-157,259,0,-19,195,-258,610.8794560432434,610.8795344829559,610.8828847408295,610.8949358463287,611.045084476471,611.045084476471,611.045084476471,611.045084476471,611.045084476471,611.045084476471,611.045084476471,614.7449097633362,3,3.846052885055542,None,,,,,,,,,,,,,,,,,,4,2,2025-02-11_15h04.31.313,comp,2024.2.5,61.29290301839092,2025-02-11 15h04.38.444370 -0500,
125,125,0,critical,wdh,60.0,2.1,lower,57.0,133.0,55.0,55.0,133.0,57.0,1,4.211388826370239,None,,,,,0,0,0,0,0,125,125,34,614.7613444328308,,,,,,,,,,,,,,,,,,,,,,,,,,,,,,,,,,,,,,,,,,,,,,,,,,,,,,,,,,,,,,,,,,,,,,,,,,,,,,,,,57.0,133.0,55.0,55.0,133.0,57.0,2.1,2.11,-190,284,0,257,152,-275,614.7466583251953,614.7467939853668,614.7504234313965,614.7613444328308,614.9115660190582,614.9115660190582,614.9115660190582,614.9115660190582,614.9115660190582,614.9115660190582,614.9115660190582,618.9837825298309,1,4.211388826370239,None,,,,,,,,,,,,,,,,,,4,2,2025-02-11_15h04.31.313,comp,2024.2.5,61.29290301839092,2025-02-11 15h04.38.444370 -0500,
126,126,0,critical,dwh,60.0,4.0,lower,55.0,55.0,57.0,133.0,133.0,57.0,2,2.445512294769287,None,,,,,0,0,0,0,0,126,126,70,619.0001611709595,,,,,,,,,,,,,,,,,,,,,,,,,,,,,,,,,,,,,,,,,,,,,,,,,,,,,,,,,,,,,,,,,,,,,,,,,,,,,,,,,55.0,55.0,57.0,133.0,133.0,57.0,4.0,4.2,-190,10,0,-283,191,1,618.9853940010071,618.9854738712311,618.9885535240173,619.0001611709595,619.1460468769073,619.1460468769073,619.1460468769073,619.1460468769073,619.1460468769073,619.1460468769073,619.1460468769073,621.453043460846,2,2.445512294769287,None,,,,,,,,,,,,,,,,,,4,2,2025-02-11_15h04.31.313,comp,2024.2.5,61.29290301839092,2025-02-11 15h04.38.444370 -0500,
127,127,0,filler_random,None,None,None,None,None,None,None,None,None,None,1,3.487867832183838,None,,,,,0,0,0,0,0,127,127,150,621.4695062637329,,,,,,,,,,,,,,,,,,,,,,,,,,,,,,,,,,,,,,,,,,,,,,,,,,,,,,,,,,,,,,,,,,,,,,,,,,,,,,,,,131.8767941393729,156.3886690336554,147.95990577580145,110.10075894404139,81.67241552029974,110.56784019043408,3.0,3.2,-229,-254,0,-11,206,277,621.4547395706177,621.4548184871674,621.4578132629395,621.4695062637329,621.6144332885742,621.6144332885742,621.6144332885742,621.6144332885742,621.6144332885742,621.6144332885742,621.6144332885742,624.9617040157318,1,3.487867832183838,None,,,,,,,,,,,,,,,,,,4,2,2025-02-11_15h04.31.313,comp,2024.2.5,61.29290301839092,2025-02-11 15h04.38.444370 -0500,
128,128,0,critical,wdh,60.0,3.0,upper,125.0,200.0,100.0,100.0,200.0,125.0,1,3.1630361080169678,None,,,,,0,0,0,0,0,128,128,81,624.9789474010468,,,,,,,,,,,,,,,,,,,,,,,,,,,,,,,,,,,,,,,,,,,,,,,,,,,,,,,,,,,,,,,,,,,,,,,,,,,,,,,,,125.0,200.0,100.0,100.0,200.0,125.0,3.0,3.1,-246,251,0,-14,208,-267,624.963249206543,624.9633283615112,624.9663829803467,624.9789474010468,625.1173293590546,625.1173293590546,625.1173293590546,625.1173293590546,625.1173293590546,625.1173293590546,625.1173293590546,628.1494936943054,1,3.1630361080169678,None,,,,,,,,,,,,,,,,,,4,2,2025-02-11_15h04.31.313,comp,2024.2.5,61.29290301839092,2025-02-11 15h04.38.444370 -0500,
129,129,0,critical,whd,45.0,1.0,lower,57.0,133.0,133.0,57.0,65.0,65.0,1,4.019564867019653,None,,,,,0,0,0,0,0,129,129,84,628.1702089309692,,,,,,,,,,,,,,,,,,,,,,,,,,,,,,,,,,,,,,,,,,,,,,,,,,,,,,,,,,,,,,,,,,,,,,,,,,,,,,,,,57.0,133.0,133.0,57.0,65.0,65.0,1.0,1.1,-671,281,-480,272,-323,281,628.1510553359985,628.1511378288269,628.1542861461639,628.1702089309692,628.3182368278503,628.3182368278503,628.3182368278503,628.3182368278503,628.3182368278503,628.3182368278503,628.3182368278503,632.1968429088593,1,4.019564867019653,None,,,,,,,,,,,,,,,,,,4,2,2025-02-11_15h04.31.313,comp,2024.2.5,61.29290301839092,2025-02-11 15h04.38.444370 -0500,
130,130,0,critical,wdh,45.0,2.1,upper,125.0,200.0,117.0,117.0,200.0,125.0,1,2.727102756500244,None,,,,,0,0,0,0,0,130,130,9,632.2132000923157,,,,,,,,,,,,,,,,,,,,,,,,,,,,,,,,,,,,,,,,,,,,,,,,,,,,,,,,,,,,,,,,,,,,,,,,,,,,,,,,,125.0,200.0,117.0,117.0,200.0,125.0,2.1,2.12,-254,-276,0,-284,217,288,632.1983892917633,632.1984713077545,632.2014789581299,632.2132000923157,632.3541543483734,632.3541543483734,632.3541543483734,632.3541543483734,632.3541543483734,632.3541543483734,632.3541543483734,634.9585621356964,1,2.727102756500244,None,,,,,,,,,,,,,,,,,,4,2,2025-02-11_15h04.31.313,comp,2024.2.5,61.29290301839092,2025-02-11 15h04.38.444370 -0500,
131,131,0,filler_random,None,None,None,None,None,None,None,None,None,None,1,1.7647387981414795,None,,,,,0,0,0,0,0,131,131,141,634.9760541915894,,,,,,,,,,,,,,,,,,,,,,,,,,,,,,,,,,,,,,,,,,,,,,,,,,,,,,,,,,,,,,,,,,,,,,,,,,,,,,,,,170.25680431082895,161.4382241638999,159.1243125010484,176.57288741499838,134.83164342555682,166.7491524756948,1.0,1.1,-745,263,-480,262,-212,281,634.9602513313293,634.960328578949,634.9633152484894,634.9760541915894,635.1153247356415,635.1153247356415,635.1153247356415,635.1153247356415,635.1153247356415,635.1153247356415,635.1153247356415,636.7460861206055,1,1.7647387981414795,None,,,,,,,,,,,,,,,,,,4,2,2025-02-11_15h04.31.313,comp,2024.2.5,61.29290301839092,2025-02-11 15h04.38.444370 -0500,
132,132,0,critical,whd,45.0,2.1,upper,125.0,200.0,200.0,125.0,117.0,117.0,1,2.2584619522094727,None,,,,,0,0,0,0,0,132,132,13,636.761702299118,,,,,,,,,,,,,,,,,,,,,,,,,,,,,,,,,,,,,,,,,,,,,,,,,,,,,,,,,,,,,,,,,,,,,,,,,,,,,,,,,125.0,200.0,200.0,125.0,117.0,117.0,2.1,2.12,-258,-271,0,-283,217,266,636.7475717067719,636.7476539611816,636.7506301403046,636.761702299118,636.9015307426453,636.9015307426453,636.9015307426453,636.9015307426453,636.9015307426453,636.9015307426453,636.9015307426453,639.034613609314,1,2.2584619522094727,None,,,,,,,,,,,,,,,,,,4,2,2025-02-11_15h04.31.313,comp,2024.2.5,61.29290301839092,2025-02-11 15h04.38.444370 -0500,
133,133,0,critical,dwh,60.0,3.0,upper,100.0,100.0,125.0,200.0,200.0,125.0,2,1.7978081703186035,None,,,,,0,0,0,0,0,133,133,69,639.0487868785858,,,,,,,,,,,,,,,,,,,,,,,,,,,,,,,,,,,,,,,,,,,,,,,,,,,,,,,,,,,,,,,,,,,,,,,,,,,,,,,,,100.0,100.0,125.0,200.0,200.0,125.0,3.0,3.2,-246,-265,0,5,258,283,639.035237789154,639.035267829895,639.0364828109741,639.0487868785858,639.2028114795685,639.2028114795685,639.2028114795685,639.2028114795685,639.2028114795685,639.2028114795685,639.2028114795685,640.8514287471771,2,1.7978081703186035,None,,,,,,,,,,,,,,,,,,4,2,2025-02-11_15h04.31.313,comp,2024.2.5,61.29290301839092,2025-02-11 15h04.38.444370 -0500,
134,134,0,filler_random,None,None,None,None,None,None,None,None,None,None,3,8.76067566871643,None,,,,,0,0,0,0,0,134,134,151,640.8680732250214,,,,,,,,,,,,,,,,,,,,,,,,,,,,,,,,,,,,,,,,,,,,,,,,,,,,,,,,,,,,,,,,,,,,,,,,,,,,,,,,,118.34125691095062,157.79109905191396,90.5081646815423,172.95365619368675,190.93848927144262,116.13267990651715,2.2,2.22,-261,288,0,-257,241,-264,640.8531668186188,640.8532469272614,640.8565273284912,640.8680732250214,641.024249792099,641.024249792099,641.024249792099,641.024249792099,641.024249792099,641.024249792099,641.024249792099,649.6356480121613,3,8.76067566871643,None,,,,,,,,,,,,,,,,,,4,2,2025-02-11_15h04.31.313,comp,2024.2.5,61.29290301839092,2025-02-11 15h04.38.444370 -0500,
135,135,0,filler_random,None,None,None,None,None,None,None,None,None,None,3,1.9019031524658203,None,,,,,0,0,0,0,0,135,135,158,649.6542563438416,,,,,,,,,,,,,,,,,,,,,,,,,,,,,,,,,,,,,,,,,,,,,,,,,,,,,,,,,,,,,,,,,,,,,,,,,,,,,,,,,64.04087046510422,159.8494376935774,64.67418805782083,67.74960827860241,159.62854109543494,141.9341762661294,2.2,2.21,-210,-282,0,264,201,266,649.6375820636749,649.6376948356628,649.641049861908,649.6542563438416,649.7893552780151,649.7893552780151,649.7893552780151,649.7893552780151,649.7893552780151,649.7893552780151,649.7893552780151,651.5729374885559,3,1.9019031524658203,None,,,,,,,,,,,,,,,,,,4,2,2025-02-11_15h04.31.313,comp,2024.2.5,61.29290301839092,2025-02-11 15h04.38.444370 -0500,
136,136,0,critical,wdh,60.0,2.1,upper,125.0,200.0,100.0,100.0,200.0,125.0,1,2.3835599422454834,None,,,,,0,0,0,0,0,136,136,11,651.5886745452881,,,,,,,,,,,,,,,,,,,,,,,,,,,,,,,,,,,,,,,,,,,,,,,,,,,,,,,,,,,,,,,,,,,,,,,,,,,,,,,,,125.0,200.0,100.0,100.0,200.0,125.0,2.1,2.12,-246,-266,0,-262,208,262,651.5745701789856,651.5746507644653,651.5781540870667,651.5886745452881,651.7408668994904,651.7408668994904,651.7408668994904,651.7408668994904,651.7408668994904,651.7408668994904,651.7408668994904,653.990453004837,1,2.3835599422454834,None,,,,,,,,,,,,,,,,,,4,2,2025-02-11_15h04.31.313,comp,2024.2.5,61.29290301839092,2025-02-11 15h04.38.444370 -0500,
137,137,0,critical,hdw,45.0,3.0,upper,200.0,125.0,117.0,117.0,125.0,200.0,1,2.381699800491333,None,,,,,0,0,0,0,0,137,137,111,654.0059607028961,,,,,,,,,,,,,,,,,,,,,,,,,,,,,,,,,,,,,,,,,,,,,,,,,,,,,,,,,,,,,,,,,,,,,,,,,,,,,,,,,200.0,125.0,117.0,117.0,125.0,200.0,3.0,3.2,-217,-289,0,-16,254,268,653.9920144081116,653.9921355247498,653.9956080913544,654.0059607028961,654.1614181995392,654.1614181995392,654.1614181995392,654.1614181995392,654.1614181995392,654.1614181995392,654.1614181995392,656.3995699882507,1,2.381699800491333,None,,,,,,,,,,,,,,,,,,4,2,2025-02-11_15h04.31.313,comp,2024.2.5,61.29290301839092,2025-02-11 15h04.38.444370 -0500,
138,138,0,critical,wdh,45.0,2.1,lower,57.0,133.0,65.0,65.0,133.0,57.0,1,3.47969126701355,None,,,,,0,0,0,0,0,138,138,8,656.4201331138611,,,,,,,,,,,,,,,,,,,,,,,,,,,,,,,,,,,,,,,,,,,,,,,,,,,,,,,,,,,,,,,,,,,,,,,,,,,,,,,,,57.0,133.0,65.0,65.0,133.0,57.0,2.1,2.11,-195,284,0,258,157,-277,656.4012169837952,656.4013464450836,656.4047365188599,656.4201331138611,656.5581262111664,656.5581262111664,656.5581262111664,656.5581262111664,656.5581262111664,656.5581262111664,656.5581262111664,659.915465593338,1,3.47969126701355,None,,,,,,,,,,,,,,,,,,4,2,2025-02-11_15h04.31.313,comp,2024.2.5,61.29290301839092,2025-02-11 15h04.38.444370 -0500,
139,139,0,filler_random,None,None,None,None,None,None,None,None,None,None,1,13.103155612945557,None,,,,,0,0,0,0,0,139,139,148,659.9331302642822,,,,,,,,,,,,,,,,,,,,,,,,,,,,,,,,,,,,,,,,,,,,,,,,,,,,,,,,,,,,,,,,,,,,,,,,,,,,,,,,,194.19771609093345,176.68491774395454,90.13799643517055,91.8107029893666,171.10712878790162,188.93976928487484,2.1,2.12,-230,-266,0,-290,236,289,659.9172234535217,659.9173023700714,659.9203855991364,659.9331302642822,660.0714812278748,660.0714812278748,660.0714812278748,660.0714812278748,660.0714812278748,660.0714812278748,660.0714812278748,673.0434484481812,1,13.103155612945557,None,,,,,,,,,,,,,,,,,,4,2,2025-02-11_15h04.31.313,comp,2024.2.5,61.29290301839092,2025-02-11 15h04.38.444370 -0500,
140,140,0,critical,whd,60.0,1.0,lower,57.0,133.0,133.0,57.0,55.0,55.0,1,8.590345859527588,None,,,,,0,0,0,0,0,140,140,90,673.0608360767365,,,,,,,,,,,,,,,,,,,,,,,,,,,,,,,,,,,,,,,,,,,,,,,,,,,,,,,,,,,,,,,,,,,,,,,,,,,,,,,,,57.0,133.0,133.0,57.0,55.0,55.0,1.0,1.2,-191,9,0,14,152,19,673.0449595451355,673.0450642108917,673.0483937263489,673.0608360767365,673.2074856758118,673.2074856758118,673.2074856758118,673.2074856758118,673.2074856758118,673.2074856758118,673.2074856758118,681.6694238185883,1,8.590345859527588,None,,,,,,,,,,,,,,,,,,4,2,2025-02-11_15h04.31.313,comp,2024.2.5,61.29290301839092,2025-02-11 15h04.38.444370 -0500,
