thisN,thisTrialN,thisRepN,effect,order,distance,config,diag,h_1,w_1,h_2,w_2,h_3,w_3,rect_choice.keys,rect_choice.rt,rect_choice.duration,instructions_loop.thisRepN,instructions_loop.thisTrialN,instructions_loop.thisN,instructions_loop.thisIndex,blocks.thisRepN,blocks.thisTrialN,blocks.thisN,blocks.thisIndex,trials.thisRepN,trials.thisTrialN,trials.thisN,trials.thisIndex,thisRow.t,notes,consent.started,agree_button.started,decline_button.started,consent_img.started,mouse.started,consent.stopped,agree_button.numClicks,agree_button.timesOn,agree_button.timesOff,decline_button.numClicks,decline_button.timesOn,decline_button.timesOff,mouse.x,mouse.y,mouse.leftButton,mouse.midButton,mouse.rightButton,mouse.time,mouse.clicked_name,exp_params.started,exp_params.stopped,welcome.started,welcome_text.started,welcome.stopped,instructions_1.started,instructions_1_text_1.started,instructions_1_text_2.started,key_resp.started,instructions_1.stopped,instructions_loop.key_resp.keys,instructions_loop.key_resp.rt,instructions_loop.key_resp.duration,instructions_2.started,instructions_2_text_1.started,instructions_2_text_2.started,key_resp_2.started,instructions_2.stopped,instructions_loop.key_resp_2.keys,instructions_loop.key_resp_2.rt,instructions_loop.key_resp_2.duration,instructions_3.started,instructions_3_text_1.started,r1_instr3.started,r2_instr3.started,r3_instr3.started,r1_instr3_label.started,r2_instr3_label.started,r3_instr3_label.started,instructions_3_text_3.started,instructions_3_text_4.started,key_resp_3.started,instructions_3.stopped,instructions_loop.key_resp_3.keys,instructions_loop.key_resp_3.rt,instructions_loop.key_resp_3.duration,instructions_4.started,instructions_4_text_1.started,instructions_4_text_3.started,instructions_4_text_2.started,key_resp_4.started,instructions_4.stopped,instructions_loop.key_resp_4.keys,instructions_loop.key_resp_4.rt,instructions_loop.key_resp_4.duration,instructions_5.started,instructions_5_text_1.started,instructions_5_text_2.started,key_resp_5.started,instructions_5.stopped,instructions_loop.key_resp_5.keys,instructions_loop.key_resp_5.rt,instructions_loop.key_resp_5.duration,start_exp.started,start_exp_text.started,key_resp_6.started,start_exp.stopped,key_resp_6.keys,key_resp_6.rt,key_resp_6.duration,h_1_tmp,w_1_tmp,h_2_tmp,w_2_tmp,h_3_tmp,w_3_tmp,config_tmp,config_tmp_1,r_1_x,r_1_y,r_2_x,r_2_y,r_3_x,r_3_y,pre_trial.started,pre_trial.stopped,choice_trial.started,rect_choice.started,r_1.started,r_2.started,r_3.started,r_1_label.started,r_2_label.started,r_3_label.started,prompt.started,choice_trial.stopped,trials.rect_choice.keys,trials.rect_choice.rt,trials.rect_choice.duration,end_block.started,end_block_text.started,end_block.stopped,end.started,end_text.started,key_resp_7.started,end.stopped,key_resp_7.keys,key_resp_7.rt,key_resp_7.duration,debriefing.started,debrief_form.started,end_debrief.started,debriefing.stopped,end_debrief.keys,end_debrief.rt,end_debrief.duration,participant,computer,date,expName,psychopyVersion,frameRate,expStart,
,,,,,,,,,,,,,,,,,,,,,,,,,,,,,,,0.01512002944946289,0.0415799617767334,0.0415799617767334,0.0415799617767334,0.014946460723876953,63.759111166000366,1,[63.71511697769165],[63.71514105796814],0,,,[-120.0],[-517.0],[1],[0],[0],[63.74349236488342],['agree_button'],,,,,,,,,,,,,,,,,,,,,,,,,,,,,,,,,,,,,,,,,,,,,,,,,,,,,,,,,,,,,,,,,,,,,,,,,,,,,,,,,,,,,,,,,,,,,,,,,,,,,,,,,,,5,2,2025-02-12_15h59.48.107,comp,2024.2.5,56.624154378063714,2025-02-12 16h05.46.068308 -0500,
,,,,,,,,,,,,,,,,,,,,,,,,,,,,,,,,,,,,,,,,,,,,,,,,,,63.75963640213013,63.75970435142517,,,,,,,,,,,,,,,,,,,,,,,,,,,,,,,,,,,,,,,,,,,,,,,,,,,,,,,,,,,,,,,,,,,,,,,,,,,,,,,,,,,,,,,,,,,,,,,,,,,,,,,,,5,2,2025-02-12_15h59.48.107,comp,2024.2.5,56.624154378063714,2025-02-12 16h05.46.068308 -0500,
,,,,,,,,,,,,,,,,,,,,,,,,,,,,,,,,,,,,,,,,,,,,,,,,,,,,63.75974702835083,63.77351093292236,65.76352858543396,,,,,,,,,,,,,,,,,,,,,,,,,,,,,,,,,,,,,,,,,,,,,,,,,,,,,,,,,,,,,,,,,,,,,,,,,,,,,,,,,,,,,,,,,,,,,,,,,,,,,,5,2,2025-02-12_15h59.48.107,comp,2024.2.5,56.624154378063714,2025-02-12 16h05.46.068308 -0500,
0,0,0,,,,,,,,,,,,,,,0,0,0,0,,,,,,,,,65.77965545654297,,,,,,,,,,,,,,,,,,,,,,,,,,65.76503324508667,65.77965545654297,65.77965545654297,67.26373362541199,72.78572988510132,space,5.466066598892212,None,72.78588795661926,72.80399513244629,72.80399513244629,74.2988920211792,99.55810213088989,space,25.24579358100891,None,99.55828189849854,99.59759545326233,99.59759545326233,99.59759545326233,99.59759545326233,99.59759545326233,99.59759545326233,99.59759545326233,99.59759545326233,99.59759545326233,101.06384611129761,122.24979329109192,space,21.16829562187195,None,122.24995422363281,122.26645541191101,122.26645541191101,122.26645541191101,123.76384139060974,132.65065121650696,space,8.876792192459106,None,132.65080857276917,132.66560745239258,132.66560745239258,134.1661171913147,137.5856671333313,space,3.417759895324707,None,137.5858678817749,137.60025596618652,137.60025596618652,139.18573594093323,space,1.5835270881652832,None,,,,,,,,,,,,,,,,,,,,,,,,,,,,,,,,,,,,,,,,,,,,,,,5,2,2025-02-12_15h59.48.107,comp,2024.2.5,56.624154378063714,2025-02-12 16h05.46.068308 -0500,
0,0,0,filler_square,None,None,None,None,None,None,None,None,None,None,1,7.795147180557251,None,,,,,0,0,0,0,0,0,0,174,139.2691261768341,,,,,,,,,,,,,,,,,,,,,,,,,,,,,,,,,,,,,,,,,,,,,,,,,,,,,,,,,,,,,,,,,,,,,,,,,,,,,,,,,68.69367492412195,68.69367492412195,59.30834826356589,67.86853179679815,64.23948654394407,60.128884084066144,4.0,4.1,-164,-289,0,9,160,-256,139.252925157547,139.2529673576355,139.25454783439636,139.2691261768341,139.42620134353638,139.42620134353638,139.42620134353638,139.42620134353638,139.42620134353638,139.42620134353638,139.42620134353638,147.07176208496094,1,7.795147180557251,None,,,,,,,,,,,,,,,,,,5,2,2025-02-12_15h59.48.107,comp,2024.2.5,56.624154378063714,2025-02-12 16h05.46.068308 -0500,
1,1,0,critical,dwh,45.0,1.0,lower,65.0,65.0,57.0,133.0,133.0,57.0,2,6.66295313835144,None,,,,,0,0,0,0,0,1,1,60,147.0885660648346,,,,,,,,,,,,,,,,,,,,,,,,,,,,,,,,,,,,,,,,,,,,,,,,,,,,,,,,,,,,,,,,,,,,,,,,,,,,,,,,,65.0,65.0,57.0,133.0,133.0,57.0,1.0,1.3,285,-287,480,-267,671,-253,147.0734920501709,147.0736312866211,147.07753252983093,147.0885660648346,147.23641085624695,147.23641085624695,147.23641085624695,147.23641085624695,147.23641085624695,147.23641085624695,147.23641085624695,153.7570219039917,2,6.66295313835144,None,,,,,,,,,,,,,,,,,,5,2,2025-02-12_15h59.48.107,comp,2024.2.5,56.624154378063714,2025-02-12 16h05.46.068308 -0500,
2,2,0,filler_random,None,None,None,None,None,None,None,None,None,None,3,2.1502044200897217,None,,,,,0,0,0,0,0,2,2,145,153.7770435810089,,,,,,,,,,,,,,,,,,,,,,,,,,,,,,,,,,,,,,,,,,,,,,,,,,,,,,,,,,,,,,,,,,,,,,,,,,,,,,,,,102.29061533308425,77.36168905393244,94.56573419399162,176.1101505930387,193.87506439827666,125.99804407730765,4.0,4.1,-223,-280,0,-6,247,-281,153.75877022743225,153.75885128974915,153.76206278800964,153.7770435810089,153.92356777191162,153.92356777191162,153.92356777191162,153.92356777191162,153.92356777191162,153.92356777191162,153.92356777191162,155.94003105163574,3,2.1502044200897217,None,,,,,,,,,,,,,,,,,,5,2,2025-02-12_15h59.48.107,comp,2024.2.5,56.624154378063714,2025-02-12 16h05.46.068308 -0500,
3,3,0,critical,whd,45.0,1.0,lower,57.0,133.0,133.0,57.0,65.0,65.0,2,12.673951148986816,None,,,,,0,0,0,0,0,3,3,84,155.95700597763062,,,,,,,,,,,,,,,,,,,,,,,,,,,,,,,,,,,,,,,,,,,,,,,,,,,,,,,,,,,,,,,,,,,,,,,,,,,,,,,,,57.0,133.0,133.0,57.0,65.0,65.0,1.0,1.3,289,-275,480,-259,637,-268,155.94155049324036,155.94162726402283,155.94445538520813,155.95700597763062,156.10996341705322,156.10996341705322,156.10996341705322,156.10996341705322,156.10996341705322,156.10996341705322,156.10996341705322,168.64495706558228,2,12.673951148986816,None,,,,,,,,,,,,,,,,,,5,2,2025-02-12_15h59.48.107,comp,2024.2.5,56.624154378063714,2025-02-12 16h05.46.068308 -0500,
4,4,0,filler_square,None,None,None,None,None,None,None,None,None,None,3,2.1474618911743164,None,,,,,0,0,0,0,0,4,4,185,168.6602623462677,,,,,,,,,,,,,,,,,,,,,,,,,,,,,,,,,,,,,,,,,,,,,,,,,,,,,,,,,,,,,,,,,,,,,,,,,,,,,,,,,82.57352787915363,60.79359558836745,73.51714583742526,91.22541028271435,152.1402664554701,152.1402664554701,1.0,1.2,-172,-10,0,10,218,-18,168.6468300819397,168.64691472053528,168.64998722076416,168.6602623462677,168.81040263175964,168.81040263175964,168.81040263175964,168.81040263175964,168.81040263175964,168.81040263175964,168.81040263175964,170.81226873397827,3,2.1474618911743164,None,,,,,,,,,,,,,,,,,,5,2,2025-02-12_15h59.48.107,comp,2024.2.5,56.624154378063714,2025-02-12 16h05.46.068308 -0500,
5,5,0,catch,None,None,None,None,None,None,None,None,None,None,1,2.064875364303589,None,,,,,0,0,0,0,0,5,5,126,170.8299126625061,,,,,,,,,,,,,,,,,,,,,,,,,,,,,,,,,,,,,,,,,,,,,,,,,,,,,,,,,,,,,,,,,,,,,,,,,,,,,,,,,135,190,130,60,110,80,2.2,2.22,-221,259,0,-272,166,-289,170.81453824043274,170.8146722316742,170.81832122802734,170.8299126625061,170.97645378112793,170.97645378112793,170.97645378112793,170.97645378112793,170.97645378112793,170.97645378112793,170.97645378112793,172.91191148757935,1,2.064875364303589,None,,,,,,,,,,,,,,,,,,5,2,2025-02-12_15h59.48.107,comp,2024.2.5,56.624154378063714,2025-02-12 16h05.46.068308 -0500,
6,6,0,critical,hdw,45.0,2.1,upper,200.0,125.0,117.0,117.0,125.0,200.0,3,3.6963469982147217,None,,,,,0,0,0,0,0,6,6,45,172.92787289619446,,,,,,,,,,,,,,,,,,,,,,,,,,,,,,,,,,,,,,,,,,,,,,,,,,,,,,,,,,,,,,,,,,,,,,,,,,,,,,,,,200.0,125.0,117.0,117.0,125.0,200.0,2.1,2.11,-217,271,0,269,254,-258,172.91369199752808,172.91382718086243,172.91748929023743,172.92787289619446,173.0771768093109,173.0771768093109,173.0771768093109,173.0771768093109,173.0771768093109,173.0771768093109,173.0771768093109,176.62886428833008,3,3.6963469982147217,None,,,,,,,,,,,,,,,,,,5,2,2025-02-12_15h59.48.107,comp,2024.2.5,56.624154378063714,2025-02-12 16h05.46.068308 -0500,
7,7,0,critical,hdw,60.0,2.1,upper,200.0,125.0,100.0,100.0,125.0,200.0,1,3.141854763031006,None,,,,,0,0,0,0,0,7,7,47,176.6495246887207,,,,,,,,,,,,,,,,,,,,,,,,,,,,,,,,,,,,,,,,,,,,,,,,,,,,,,,,,,,,,,,,,,,,,,,,,,,,,,,,,200.0,125.0,100.0,100.0,125.0,200.0,2.1,2.12,-208,-280,0,-257,246,253,176.63050842285156,176.63058924674988,176.63377833366394,176.6495246887207,176.79642939567566,176.79642939567566,176.79642939567566,176.79642939567566,176.79642939567566,176.79642939567566,176.79642939567566,179.79779076576233,1,3.141854763031006,None,,,,,,,,,,,,,,,,,,5,2,2025-02-12_15h59.48.107,comp,2024.2.5,56.624154378063714,2025-02-12 16h05.46.068308 -0500,
8,8,0,critical,dhw,45.0,2.1,upper,117.0,117.0,200.0,125.0,125.0,200.0,3,1.8257832527160645,None,,,,,0,0,0,0,0,8,8,1,179.81422686576843,,,,,,,,,,,,,,,,,,,,,,,,,,,,,,,,,,,,,,,,,,,,,,,,,,,,,,,,,,,,,,,,,,,,,,,,,,,,,,,,,117.0,117.0,200.0,125.0,125.0,200.0,2.1,2.11,-217,288,0,261,258,-267,179.79939579963684,179.79947447776794,179.80250644683838,179.81422686576843,179.96670985221863,179.96670985221863,179.96670985221863,179.96670985221863,179.96670985221863,179.96670985221863,179.96670985221863,181.65155386924744,3,1.8257832527160645,None,,,,,,,,,,,,,,,,,,5,2,2025-02-12_15h59.48.107,comp,2024.2.5,56.624154378063714,2025-02-12 16h05.46.068308 -0500,
9,9,0,critical,dhw,60.0,2.1,upper,100.0,100.0,200.0,125.0,125.0,200.0,2,2.0593600273132324,None,,,,,0,0,0,0,0,9,9,3,181.66781735420227,,,,,,,,,,,,,,,,,,,,,,,,,,,,,,,,,,,,,,,,,,,,,,,,,,,,,,,,,,,,,,,,,,,,,,,,,,,,,,,,,100.0,100.0,200.0,125.0,125.0,200.0,2.1,2.12,-208,-254,0,-278,258,252,181.6532051563263,181.65333485603333,181.6570327281952,181.66781735420227,181.81646370887756,181.81646370887756,181.81646370887756,181.81646370887756,181.81646370887756,181.81646370887756,181.81646370887756,183.73209977149963,2,2.0593600273132324,None,,,,,,,,,,,,,,,,,,5,2,2025-02-12_15h59.48.107,comp,2024.2.5,56.624154378063714,2025-02-12 16h05.46.068308 -0500,
10,10,0,critical,wdh,45.0,2.1,upper,125.0,200.0,117.0,117.0,200.0,125.0,1,2.261434555053711,None,,,,,0,0,0,0,0,10,10,9,183.7480125427246,,,,,,,,,,,,,,,,,,,,,,,,,,,,,,,,,,,,,,,,,,,,,,,,,,,,,,,,,,,,,,,,,,,,,,,,,,,,,,,,,125.0,200.0,117.0,117.0,200.0,125.0,2.1,2.11,-254,282,0,256,217,-284,183.73373365402222,183.73381447792053,183.7371928691864,183.7480125427246,183.89682579040527,183.89682579040527,183.89682579040527,183.89682579040527,183.89682579040527,183.89682579040527,183.89682579040527,186.0143415927887,1,2.261434555053711,None,,,,,,,,,,,,,,,,,,5,2,2025-02-12_15h59.48.107,comp,2024.2.5,56.624154378063714,2025-02-12 16h05.46.068308 -0500,
11,11,0,filler_random,None,None,None,None,None,None,None,None,None,None,2,13.488221168518066,None,,,,,0,0,0,0,0,11,11,157,186.03096318244934,,,,,,,,,,,,,,,,,,,,,,,,,,,,,,,,,,,,,,,,,,,,,,,,,,,,,,,,,,,,,,,,,,,,,,,,,,,,,,,,,177.9351040567209,58.46018217178198,72.10964709720491,134.92610470327014,77.47291491323566,143.37876637059804,2.1,2.12,-193,-264,0,-281,235,254,186.01611995697021,186.0162467956543,186.0192596912384,186.03096318244934,186.16690158843994,186.16690158843994,186.16690158843994,186.16690158843994,186.16690158843994,186.16690158843994,186.16690158843994,199.52475309371948,2,13.488221168518066,None,,,,,,,,,,,,,,,,,,5,2,2025-02-12_15h59.48.107,comp,2024.2.5,56.624154378063714,2025-02-12 16h05.46.068308 -0500,
12,12,0,critical,wdh,60.0,2.1,lower,57.0,133.0,55.0,55.0,133.0,57.0,3,5.145326614379883,None,,,,,0,0,0,0,0,12,12,10,199.54061079025269,,,,,,,,,,,,,,,,,,,,,,,,,,,,,,,,,,,,,,,,,,,,,,,,,,,,,,,,,,,,,,,,,,,,,,,,,,,,,,,,,57.0,133.0,55.0,55.0,133.0,57.0,2.1,2.12,-190,-272,0,-276,152,286,199.5263831615448,199.5264642238617,199.5294325351715,199.54061079025269,199.68777799606323,199.68777799606323,199.68777799606323,199.68777799606323,199.68777799606323,199.68777799606323,199.68777799606323,204.68940782546997,3,5.145326614379883,None,,,,,,,,,,,,,,,,,,5,2,2025-02-12_15h59.48.107,comp,2024.2.5,56.624154378063714,2025-02-12 16h05.46.068308 -0500,
13,13,0,critical,dhw,45.0,3.0,lower,65.0,65.0,133.0,57.0,57.0,133.0,3,2.1169800758361816,None,,,,,0,0,0,0,0,13,13,50,204.70496487617493,,,,,,,,,,,,,,,,,,,,,,,,,,,,,,,,,,,,,,,,,,,,,,,,,,,,,,,,,,,,,,,,,,,,,,,,,,,,,,,,,65.0,65.0,133.0,57.0,57.0,133.0,3.0,3.1,-157,285,0,-5,191,-265,204.69100189208984,204.69108295440674,204.69417190551758,204.70496487617493,204.85851979255676,204.85851979255676,204.85851979255676,204.85851979255676,204.85851979255676,204.85851979255676,204.85851979255676,206.84111404418945,3,2.1169800758361816,None,,,,,,,,,,,,,,,,,,5,2,2025-02-12_15h59.48.107,comp,2024.2.5,56.624154378063714,2025-02-12 16h05.46.068308 -0500,
14,14,0,critical,hdw,60.0,2.1,upper,200.0,125.0,100.0,100.0,125.0,200.0,3,1.6212780475616455,None,,,,,0,0,0,0,0,14,14,23,206.85656023025513,,,,,,,,,,,,,,,,,,,,,,,,,,,,,,,,,,,,,,,,,,,,,,,,,,,,,,,,,,,,,,,,,,,,,,,,,,,,,,,,,200.0,125.0,100.0,100.0,125.0,200.0,2.1,2.12,-208,-262,0,-268,246,265,206.84282064437866,206.84289860725403,206.84587478637695,206.85656023025513,207.00499176979065,207.00499176979065,207.00499176979065,207.00499176979065,207.00499176979065,207.00499176979065,207.00499176979065,208.49207711219788,3,1.6212780475616455,None,,,,,,,,,,,,,,,,,,5,2,2025-02-12_15h59.48.107,comp,2024.2.5,56.624154378063714,2025-02-12 16h05.46.068308 -0500,
15,15,0,critical,dwh,45.0,2.1,upper,117.0,117.0,125.0,200.0,200.0,125.0,2,2.466524839401245,None,,,,,0,0,0,0,0,15,15,5,208.50717520713806,,,,,,,,,,,,,,,,,,,,,,,,,,,,,,,,,,,,,,,,,,,,,,,,,,,,,,,,,,,,,,,,,,,,,,,,,,,,,,,,,117.0,117.0,125.0,200.0,200.0,125.0,2.1,2.12,-254,-288,0,-270,258,273,208.49368834495544,208.4937674999237,208.49687480926514,208.50717520713806,208.6548330783844,208.6548330783844,208.6548330783844,208.6548330783844,208.6548330783844,208.6548330783844,208.6548330783844,210.9894859790802,2,2.466524839401245,None,,,,,,,,,,,,,,,,,,5,2,2025-02-12_15h59.48.107,comp,2024.2.5,56.624154378063714,2025-02-12 16h05.46.068308 -0500,
16,16,0,filler_random,None,None,None,None,None,None,None,None,None,None,3,2.6341471672058105,None,,,,,0,0,0,0,0,16,16,141,211.00445985794067,,,,,,,,,,,,,,,,,,,,,,,,,,,,,,,,,,,,,,,,,,,,,,,,,,,,,,,,,,,,,,,,,,,,,,,,,,,,,,,,,155.03524728699978,188.23029013871022,63.77455318684679,60.80503756176884,149.11691828911745,172.38922778593044,2.2,2.21,-221,-278,0,266,213,275,210.99147963523865,210.99157094955444,210.99495816230774,211.00445985794067,211.155264377594,211.155264377594,211.155264377594,211.155264377594,211.155264377594,211.155264377594,211.155264377594,213.64326763153076,3,2.6341471672058105,None,,,,,,,,,,,,,,,,,,5,2,2025-02-12_15h59.48.107,comp,2024.2.5,56.624154378063714,2025-02-12 16h05.46.068308 -0500,
17,17,0,filler_square,None,None,None,None,None,None,None,None,None,None,1,3.506695032119751,None,,,,,0,0,0,0,0,17,17,200,213.660089969635,,,,,,,,,,,,,,,,,,,,,,,,,,,,,,,,,,,,,,,,,,,,,,,,,,,,,,,,,,,,,,,,,,,,,,,,,,,,,,,,,75.72911358651679,75.72911358651679,60.20190684791744,60.10522440257009,60.07874021853238,57.912829384559224,3.0,3.2,-164,-272,0,16,155,289,213.64577722549438,213.64585947990417,213.64931440353394,213.660089969635,213.8045370578766,213.8045370578766,213.8045370578766,213.8045370578766,213.8045370578766,213.8045370578766,213.8045370578766,217.17531609535217,1,3.506695032119751,None,,,,,,,,,,,,,,,,,,5,2,2025-02-12_15h59.48.107,comp,2024.2.5,56.624154378063714,2025-02-12 16h05.46.068308 -0500,
18,18,0,critical,hwd,45.0,2.1,lower,133.0,57.0,57.0,133.0,65.0,65.0,2,32.47184991836548,None,,,,,0,0,0,0,0,18,18,16,217.19690561294556,,,,,,,,,,,,,,,,,,,,,,,,,,,,,,,,,,,,,,,,,,,,,,,,,,,,,,,,,,,,,,,,,,,,,,,,,,,,,,,,,133.0,57.0,57.0,133.0,65.0,65.0,2.1,2.12,-191,-271,0,-265,195,265,217.1768684387207,217.1769483089447,217.17986536026,217.19690561294556,217.34116983413696,217.34116983413696,217.34116983413696,217.34116983413696,217.34116983413696,217.34116983413696,217.34116983413696,249.68689632415771,2,32.47184991836548,None,,,,,,,,,,,,,,,,,,5,2,2025-02-12_15h59.48.107,comp,2024.2.5,56.624154378063714,2025-02-12 16h05.46.068308 -0500,
19,19,0,filler_square,None,None,None,None,None,None,None,None,None,None,1,1.8669133186340332,None,,,,,0,0,0,0,0,19,19,187,249.705974817276,,,,,,,,,,,,,,,,,,,,,,,,,,,,,,,,,,,,,,,,,,,,,,,,,,,,,,,,,,,,,,,,,,,,,,,,,,,,,,,,,190.87124067633877,190.87124067633877,58.96697981373726,64.49260520430823,152.48665007360796,119.03859175088559,4.0,4.2,-224,2,0,-253,188,-10,249.68896985054016,249.6890528202057,249.69252943992615,249.705974817276,249.85922122001648,249.85922122001648,249.85922122001648,249.85922122001648,249.85922122001648,249.85922122001648,249.85922122001648,251.5776345729828,1,1.8669133186340332,None,,,,,,,,,,,,,,,,,,5,2,2025-02-12_15h59.48.107,comp,2024.2.5,56.624154378063714,2025-02-12 16h05.46.068308 -0500,
20,20,0,filler_square,None,None,None,None,None,None,None,None,None,None,2,1.543018102645874,None,,,,,0,0,0,0,0,20,20,209,251.5981764793396,,,,,,,,,,,,,,,,,,,,,,,,,,,,,,,,,,,,,,,,,,,,,,,,,,,,,,,,,,,,,,,,,,,,,,,,,,,,,,,,,109.60090470392907,111.04811080923176,114.66947784095262,114.66947784095262,98.01007273989657,60.14946978879461,3.0,3.1,-209,280,0,14,183,-262,251.57947826385498,251.57955861091614,251.58243536949158,251.5981764793396,251.7359185218811,251.7359185218811,251.7359185218811,251.7359185218811,251.7359185218811,251.7359185218811,251.7359185218811,253.14961504936218,2,1.543018102645874,None,,,,,,,,,,,,,,,,,,5,2,2025-02-12_15h59.48.107,comp,2024.2.5,56.624154378063714,2025-02-12 16h05.46.068308 -0500,
21,21,0,critical,dhw,45.0,4.0,lower,65.0,65.0,133.0,57.0,57.0,133.0,3,4.3592681884765625,None,,,,,0,0,0,0,0,21,21,52,253.16532230377197,,,,,,,,,,,,,,,,,,,,,,,,,,,,,,,,,,,,,,,,,,,,,,,,,,,,,,,,,,,,,,,,,,,,,,,,,,,,,,,,,65.0,65.0,133.0,57.0,57.0,133.0,4.0,4.2,-157,-5,0,-279,191,-17,253.1512758731842,253.15135312080383,253.15462374687195,253.16532230377197,253.30562448501587,253.30562448501587,253.30562448501587,253.30562448501587,253.30562448501587,253.30562448501587,253.30562448501587,257.535040140152,3,4.3592681884765625,None,,,,,,,,,,,,,,,,,,5,2,2025-02-12_15h59.48.107,comp,2024.2.5,56.624154378063714,2025-02-12 16h05.46.068308 -0500,
22,22,0,filler_square,None,None,None,None,None,None,None,None,None,None,2,3.1060903072357178,None,,,,,0,0,0,0,0,22,22,192,257.5553045272827,,,,,,,,,,,,,,,,,,,,,,,,,,,,,,,,,,,,,,,,,,,,,,,,,,,,,,,,,,,,,,,,,,,,,,,,,,,,,,,,,61.439694734477655,72.49526723247321,79.84380173639785,79.84380173639785,60.75844080123332,69.84524057804968,3.0,3.2,-172,-260,0,14,171,283,257.5369131565094,257.5369927883148,257.54004740715027,257.5553045272827,257.7031943798065,257.7031943798065,257.7031943798065,257.7031943798065,257.7031943798065,257.7031943798065,257.7031943798065,260.6707673072815,2,3.1060903072357178,None,,,,,,,,,,,,,,,,,,5,2,2025-02-12_15h59.48.107,comp,2024.2.5,56.624154378063714,2025-02-12 16h05.46.068308 -0500,
23,23,0,filler_random,None,None,None,None,None,None,None,None,None,None,3,1.3332586288452148,None,,,,,0,0,0,0,0,23,23,133,260.6870882511139,,,,,,,,,,,,,,,,,,,,,,,,,,,,,,,,,,,,,,,,,,,,,,,,,,,,,,,,,,,,,,,,,,,,,,,,,,,,,,,,,194.13574750844575,61.164836512692055,129.5759516273706,87.16854843257822,183.09418146663762,189.56371108671664,3.0,3.1,-170,258,0,-18,234,-262,260.6725308895111,260.6726109981537,260.6761782169342,260.6870882511139,260.8392686843872,260.8392686843872,260.8392686843872,260.8392686843872,260.8392686843872,260.8392686843872,260.8392686843872,262.0378215312958,3,1.3332586288452148,None,,,,,,,,,,,,,,,,,,5,2,2025-02-12_15h59.48.107,comp,2024.2.5,56.624154378063714,2025-02-12 16h05.46.068308 -0500,
24,24,0,filler_random,None,None,None,None,None,None,None,None,None,None,2,2.295635461807251,None,,,,,0,0,0,0,0,24,24,142,262.0532035827637,,,,,,,,,,,,,,,,,,,,,,,,,,,,,,,,,,,,,,,,,,,,,,,,,,,,,,,,,,,,,,,,,,,,,,,,,,,,,,,,,106.66842967294355,94.0510462650669,110.7198888989859,174.31424557793667,113.66982084470959,167.80994366241129,3.0,3.2,-230,-259,0,12,267,273,262.0395350456238,262.039612531662,262.04294872283936,262.0532035827637,262.209121465683,262.209121465683,262.209121465683,262.209121465683,262.209121465683,262.209121465683,262.209121465683,264.35345244407654,2,2.295635461807251,None,,,,,,,,,,,,,,,,,,5,2,2025-02-12_15h59.48.107,comp,2024.2.5,56.624154378063714,2025-02-12 16h05.46.068308 -0500,
25,25,0,catch,None,None,None,None,None,None,None,None,None,None,2,2.1780056953430176,None,,,,,0,0,0,0,0,25,25,128,264.3710217475891,,,,,,,,,,,,,,,,,,,,,,,,,,,,,,,,,,,,,,,,,,,,,,,,,,,,,,,,,,,,,,,,,,,,,,,,,,,,,,,,,82,108,147,178,112,78,3.0,3.2,-239,-263,0,-4,224,271,264.35553336143494,264.355614900589,264.3593246936798,264.3710217475891,264.52549386024475,264.52549386024475,264.52549386024475,264.52549386024475,264.52549386024475,264.52549386024475,264.52549386024475,266.55732822418213,2,2.1780056953430176,None,,,,,,,,,,,,,,,,,,5,2,2025-02-12_15h59.48.107,comp,2024.2.5,56.624154378063714,2025-02-12 16h05.46.068308 -0500,
26,26,0,catch,None,None,None,None,None,None,None,None,None,None,1,1.517791986465454,None,,,,,0,0,0,0,0,26,26,129,266.57477831840515,,,,,,,,,,,,,,,,,,,,,,,,,,,,,,,,,,,,,,,,,,,,,,,,,,,,,,,,,,,,,,,,,,,,,,,,,,,,,,,,,133,192,117,73,115,75,2.2,2.22,-228,288,0,-280,170,-252,266.5595474243164,266.559627532959,266.56311988830566,266.57477831840515,266.72227215766907,266.72227215766907,266.72227215766907,266.72227215766907,266.72227215766907,266.72227215766907,266.72227215766907,268.0971233844757,1,1.517791986465454,None,,,,,,,,,,,,,,,,,,5,2,2025-02-12_15h59.48.107,comp,2024.2.5,56.624154378063714,2025-02-12 16h05.46.068308 -0500,
27,27,0,critical,hwd,45.0,3.0,upper,200.0,125.0,125.0,200.0,117.0,117.0,1,16.046504020690918,None,,,,,0,0,0,0,0,27,27,99,268.1173520088196,,,,,,,,,,,,,,,,,,,,,,,,,,,,,,,,,,,,,,,,,,,,,,,,,,,,,,,,,,,,,,,,,,,,,,,,,,,,,,,,,200.0,125.0,125.0,200.0,117.0,117.0,3.0,3.2,-258,-288,0,8,254,279,268.0986964702606,268.0987763404846,268.10171604156494,268.1173520088196,268.2562770843506,268.2562770843506,268.2562770843506,268.2562770843506,268.2562770843506,268.2562770843506,268.2562770843506,284.17943143844604,1,16.046504020690918,None,,,,,,,,,,,,,,,,,,5,2,2025-02-12_15h59.48.107,comp,2024.2.5,56.624154378063714,2025-02-12 16h05.46.068308 -0500,
28,28,0,critical,whd,60.0,2.1,upper,125.0,200.0,200.0,125.0,100.0,100.0,2,2.8706753253936768,None,,,,,0,0,0,0,0,28,28,15,284.1971642971039,,,,,,,,,,,,,,,,,,,,,,,,,,,,,,,,,,,,,,,,,,,,,,,,,,,,,,,,,,,,,,,,,,,,,,,,,,,,,,,,,125.0,200.0,200.0,125.0,100.0,100.0,2.1,2.11,-258,258,0,261,208,-254,284.18120217323303,284.18128538131714,284.1842911243439,284.1971642971039,284.34983253479004,284.34983253479004,284.34983253479004,284.34983253479004,284.34983253479004,284.34983253479004,284.34983253479004,287.08632159233093,2,2.8706753253936768,None,,,,,,,,,,,,,,,,,,5,2,2025-02-12_15h59.48.107,comp,2024.2.5,56.624154378063714,2025-02-12 16h05.46.068308 -0500,
29,29,0,catch,None,None,None,None,None,None,None,None,None,None,3,2.3749825954437256,None,,,,,0,0,0,0,0,29,29,122,287.10130047798157,,,,,,,,,,,,,,,,,,,,,,,,,,,,,,,,,,,,,,,,,,,,,,,,,,,,,,,,,,,,,,,,,,,,,,,,,,,,,,,,,126,64,125,65,132,193,2.1,2.12,-160,-252,0,-265,225,285,287.08809876441956,287.0881977081299,287.09099292755127,287.10130047798157,287.24353313446045,287.24353313446045,287.24353313446045,287.24353313446045,287.24353313446045,287.24353313446045,287.24353313446045,289.48210763931274,3,2.3749825954437256,None,,,,,,,,,,,,,,,,,,5,2,2025-02-12_15h59.48.107,comp,2024.2.5,56.624154378063714,2025-02-12 16h05.46.068308 -0500,
30,30,0,critical,whd,60.0,1.0,lower,57.0,133.0,133.0,57.0,55.0,55.0,2,20.21423029899597,None,,,,,0,0,0,0,0,30,30,90,289.5012822151184,,,,,,,,,,,,,,,,,,,,,,,,,,,,,,,,,,,,,,,,,,,,,,,,,,,,,,,,,,,,,,,,,,,,,,,,,,,,,,,,,57.0,133.0,133.0,57.0,55.0,55.0,1.0,1.1,-671,279,-480,250,-328,285,289.48377108573914,289.4838533401489,289.4868326187134,289.5012822151184,289.645058631897,289.645058631897,289.645058631897,289.645058631897,289.645058631897,289.645058631897,289.645058631897,309.7217469215393,2,20.21423029899597,None,,,,,,,,,,,,,,,,,,5,2,2025-02-12_15h59.48.107,comp,2024.2.5,56.624154378063714,2025-02-12 16h05.46.068308 -0500,
31,31,0,critical,hwd,45.0,4.0,lower,133.0,57.0,57.0,133.0,65.0,65.0,3,5.03681206703186,None,,,,,0,0,0,0,0,31,31,100,309.742244720459,,,,,,,,,,,,,,,,,,,,,,,,,,,,,,,,,,,,,,,,,,,,,,,,,,,,,,,,,,,,,,,,,,,,,,,,,,,,,,,,,133.0,57.0,57.0,133.0,65.0,65.0,4.0,4.2,-191,-18,0,-269,195,-5,309.72343730926514,309.72352051734924,309.72649788856506,309.742244720459,309.8928973674774,309.8928973674774,309.8928973674774,309.8928973674774,309.8928973674774,309.8928973674774,309.8928973674774,314.7915952205658,3,5.03681206703186,None,,,,,,,,,,,,,,,,,,5,2,2025-02-12_15h59.48.107,comp,2024.2.5,56.624154378063714,2025-02-12 16h05.46.068308 -0500,
32,32,0,critical,hdw,45.0,2.1,upper,200.0,125.0,117.0,117.0,125.0,200.0,3,2.3002119064331055,None,,,,,0,0,0,0,0,32,32,21,314.80688667297363,,,,,,,,,,,,,,,,,,,,,,,,,,,,,,,,,,,,,,,,,,,,,,,,,,,,,,,,,,,,,,,,,,,,,,,,,,,,,,,,,200.0,125.0,117.0,117.0,125.0,200.0,2.1,2.12,-217,-254,0,-273,254,259,314.7932028770447,314.79328632354736,314.7962603569031,314.80688667297363,314.9535186290741,314.9535186290741,314.9535186290741,314.9535186290741,314.9535186290741,314.9535186290741,314.9535186290741,317.1207950115204,3,2.3002119064331055,None,,,,,,,,,,,,,,,,,,5,2,2025-02-12_15h59.48.107,comp,2024.2.5,56.624154378063714,2025-02-12 16h05.46.068308 -0500,
33,33,0,critical,dhw,60.0,2.1,upper,100.0,100.0,200.0,125.0,125.0,200.0,3,4.07471489906311,None,,,,,0,0,0,0,0,33,33,27,317.1368787288666,,,,,,,,,,,,,,,,,,,,,,,,,,,,,,,,,,,,,,,,,,,,,,,,,,,,,,,,,,,,,,,,,,,,,,,,,,,,,,,,,100.0,100.0,200.0,125.0,125.0,200.0,2.1,2.12,-208,-278,0,-252,258,254,317.12240505218506,317.12248396873474,317.1266007423401,317.1368787288666,317.2906074523926,317.2906074523926,317.2906074523926,317.2906074523926,317.2906074523926,317.2906074523926,317.2906074523926,321.22147250175476,3,4.07471489906311,None,,,,,,,,,,,,,,,,,,5,2,2025-02-12_15h59.48.107,comp,2024.2.5,56.624154378063714,2025-02-12 16h05.46.068308 -0500,
34,34,0,filler_square,None,None,None,None,None,None,None,None,None,None,1,3.437488555908203,None,,,,,0,0,0,0,0,34,34,178,321.23750400543213,,,,,,,,,,,,,,,,,,,,,,,,,,,,,,,,,,,,,,,,,,,,,,,,,,,,,,,,,,,,,,,,,,,,,,,,,,,,,,,,,110.41856012052031,110.41856012052031,71.41579754787327,59.13255521633062,72.65974192704131,107.49737933427849,3.0,3.1,-181,272,0,14,179,-281,321.22336626052856,321.22344994544983,321.2267436981201,321.23750400543213,321.3880457878113,321.3880457878113,321.3880457878113,321.3880457878113,321.3880457878113,321.3880457878113,321.3880457878113,324.6891038417816,1,3.437488555908203,None,,,,,,,,,,,,,,,,,,5,2,2025-02-12_15h59.48.107,comp,2024.2.5,56.624154378063714,2025-02-12 16h05.46.068308 -0500,
35,35,0,critical,hwd,60.0,3.0,upper,200.0,125.0,125.0,200.0,100.0,100.0,1,3.8567922115325928,None,,,,,0,0,0,0,0,35,35,105,324.70599341392517,,,,,,,,,,,,,,,,,,,,,,,,,,,,,,,,,,,,,,,,,,,,,,,,,,,,,,,,,,,,,,,,,,,,,,,,,,,,,,,,,200.0,125.0,125.0,200.0,100.0,100.0,3.0,3.2,-258,-288,0,7,246,267,324.69095277786255,324.69105291366577,324.6948354244232,324.70599341392517,324.8547852039337,324.8547852039337,324.8547852039337,324.8547852039337,324.8547852039337,324.8547852039337,324.8547852039337,328.57243633270264,1,3.8567922115325928,None,,,,,,,,,,,,,,,,,,5,2,2025-02-12_15h59.48.107,comp,2024.2.5,56.624154378063714,2025-02-12 16h05.46.068308 -0500,
36,36,0,critical,hdw,60.0,2.1,lower,133.0,57.0,55.0,55.0,57.0,133.0,1,2.337393283843994,None,,,,,0,0,0,0,0,36,36,46,328.59362173080444,,,,,,,,,,,,,,,,,,,,,,,,,,,,,,,,,,,,,,,,,,,,,,,,,,,,,,,,,,,,,,,,,,,,,,,,,,,,,,,,,133.0,57.0,55.0,55.0,57.0,133.0,2.1,2.11,-152,277,0,285,190,-270,328.5740270614624,328.5741157531738,328.57780623435974,328.59362173080444,328.73916459083557,328.73916459083557,328.73916459083557,328.73916459083557,328.73916459083557,328.73916459083557,328.73916459083557,330.94249987602234,1,2.337393283843994,None,,,,,,,,,,,,,,,,,,5,2,2025-02-12_15h59.48.107,comp,2024.2.5,56.624154378063714,2025-02-12 16h05.46.068308 -0500,
37,37,0,critical,dwh,45.0,2.1,upper,117.0,117.0,125.0,200.0,200.0,125.0,2,2.0865907669067383,None,,,,,0,0,0,0,0,37,37,29,330.956298828125,,,,,,,,,,,,,,,,,,,,,,,,,,,,,,,,,,,,,,,,,,,,,,,,,,,,,,,,,,,,,,,,,,,,,,,,,,,,,,,,,117.0,117.0,125.0,200.0,200.0,125.0,2.1,2.12,-254,-252,0,-282,258,269,330.9429771900177,330.9429979324341,330.94388937950134,330.956298828125,331.1047775745392,331.1047775745392,331.1047775745392,331.1047775745392,331.1047775745392,331.1047775745392,331.1047775745392,333.05883598327637,2,2.0865907669067383,None,,,,,,,,,,,,,,,,,,5,2,2025-02-12_15h59.48.107,comp,2024.2.5,56.624154378063714,2025-02-12 16h05.46.068308 -0500,
38,38,0,filler_square,None,None,None,None,None,None,None,None,None,None,2,1.3201637268066406,None,,,,,0,0,0,0,0,38,38,182,333.07440972328186,,,,,,,,,,,,,,,,,,,,,,,,,,,,,,,,,,,,,,,,,,,,,,,,,,,,,,,,,,,,,,,,,,,,,,,,,,,,,,,,,135.12188498402998,60.62063790285517,152.6101061722657,152.6101061722657,92.30036067899685,60.98525962726453,2.1,2.12,-203,-277,0,-273,203,280,333.0606691837311,333.06077551841736,333.0640137195587,333.07440972328186,333.22405195236206,333.22405195236206,333.22405195236206,333.22405195236206,333.22405195236206,333.22405195236206,333.22405195236206,334.40794491767883,2,1.3201637268066406,None,,,,,,,,,,,,,,,,,,5,2,2025-02-12_15h59.48.107,comp,2024.2.5,56.624154378063714,2025-02-12 16h05.46.068308 -0500,
39,39,0,filler_random,None,None,None,None,None,None,None,None,None,None,1,2.2987749576568604,None,,,,,0,0,0,0,0,39,39,130,334.4239399433136,,,,,,,,,,,,,,,,,,,,,,,,,,,,,,,,,,,,,,,,,,,,,,,,,,,,,,,,,,,,,,,,,,,,,,,,,,,,,,,,,189.2931427877497,145.04958742582454,123.13542278893426,135.64411838314072,57.96706942537558,116.50970288819587,1.0,1.1,-716,283,-480,274,-258,270,334.40967535972595,334.4097526073456,334.4128201007843,334.4239399433136,334.5644292831421,334.5644292831421,334.5644292831421,334.5644292831421,334.5644292831421,334.5644292831421,334.5644292831421,336.7261092662811,1,2.2987749576568604,None,,,,,,,,,,,,,,,,,,5,2,2025-02-12_15h59.48.107,comp,2024.2.5,56.624154378063714,2025-02-12 16h05.46.068308 -0500,
40,40,0,filler_random,None,None,None,None,None,None,None,None,None,None,2,1.873934268951416,None,,,,,0,0,0,0,0,40,40,166,336.7453453540802,,,,,,,,,,,,,,,,,,,,,,,,,,,,,,,,,,,,,,,,,,,,,,,,,,,,,,,,,,,,,,,,,,,,,,,,,,,,,,,,,87.82255010425884,70.90786849395386,164.64616025252155,174.55241233103297,118.20091568674317,188.14126623608095,1.0,1.1,-699,272,-480,262,-203,259,336.7278687953949,336.7279508113861,336.7308568954468,336.7453453540802,336.89246225357056,336.89246225357056,336.89246225357056,336.89246225357056,336.89246225357056,336.89246225357056,336.89246225357056,338.62627959251404,2,1.873934268951416,None,,,,,,,,,,,,,,,,,,5,2,2025-02-12_15h59.48.107,comp,2024.2.5,56.624154378063714,2025-02-12 16h05.46.068308 -0500,
41,41,0,critical,hwd,45.0,2.1,lower,133.0,57.0,57.0,133.0,65.0,65.0,2,5.999420404434204,None,,,,,0,0,0,0,0,41,41,40,338.64281845092773,,,,,,,,,,,,,,,,,,,,,,,,,,,,,,,,,,,,,,,,,,,,,,,,,,,,,,,,,,,,,,,,,,,,,,,,,,,,,,,,,133.0,57.0,57.0,133.0,65.0,65.0,2.1,2.12,-191,-266,0,-253,195,265,338.62783312797546,338.62791085243225,338.63127613067627,338.64281845092773,338.792076587677,338.792076587677,338.792076587677,338.792076587677,338.792076587677,338.792076587677,338.792076587677,344.6452944278717,2,5.999420404434204,None,,,,,,,,,,,,,,,,,,5,2,2025-02-12_15h59.48.107,comp,2024.2.5,56.624154378063714,2025-02-12 16h05.46.068308 -0500,
42,42,0,filler_random,None,None,None,None,None,None,None,None,None,None,2,5.39684796333313,None,,,,,0,0,0,0,0,42,42,168,344.661936044693,,,,,,,,,,,,,,,,,,,,,,,,,,,,,,,,,,,,,,,,,,,,,,,,,,,,,,,,,,,,,,,,,,,,,,,,,,,,,,,,,131.98898040144417,87.18294333951587,97.04740979021048,143.71594407485702,130.64228530715695,98.1464779818281,1.0,1.2,-211,-11,0,5,217,3,344.64733481407166,344.64743876457214,344.6510555744171,344.661936044693,344.8134870529175,344.8134870529175,344.8134870529175,344.8134870529175,344.8134870529175,344.8134870529175,344.8134870529175,350.06166076660156,2,5.39684796333313,None,,,,,,,,,,,,,,,,,,5,2,2025-02-12_15h59.48.107,comp,2024.2.5,56.624154378063714,2025-02-12 16h05.46.068308 -0500,
43,43,0,filler_random,None,None,None,None,None,None,None,None,None,None,1,1.2246577739715576,None,,,,,0,0,0,0,0,43,43,132,350.0824978351593,,,,,,,,,,,,,,,,,,,,,,,,,,,,,,,,,,,,,,,,,,,,,,,,,,,,,,,,,,,,,,,,,,,,,,,,,,,,,,,,,148.8997122074705,185.3697680448716,103.59890645502884,96.55629136951762,112.13874972970771,145.29417781877487,4.0,4.1,-237,-277,0,12,217,-263,350.0633728504181,350.06349539756775,350.0667290687561,350.0824978351593,350.2294878959656,350.2294878959656,350.2294878959656,350.2294878959656,350.2294878959656,350.2294878959656,350.2294878959656,351.3121943473816,1,1.2246577739715576,None,,,,,,,,,,,,,,,,,,5,2,2025-02-12_15h59.48.107,comp,2024.2.5,56.624154378063714,2025-02-12 16h05.46.068308 -0500,
44,44,0,critical,whd,60.0,2.1,lower,57.0,133.0,133.0,57.0,55.0,55.0,1,4.634026527404785,None,,,,,0,0,0,0,0,44,44,14,351.3288764953613,,,,,,,,,,,,,,,,,,,,,,,,,,,,,,,,,,,,,,,,,,,,,,,,,,,,,,,,,,,,,,,,,,,,,,,,,,,,,,,,,57.0,133.0,133.0,57.0,55.0,55.0,2.1,2.12,-191,-253,0,-251,152,265,351.3137080669403,351.31378746032715,351.31696701049805,351.3288764953613,351.4775505065918,351.4775505065918,351.4775505065918,351.4775505065918,351.4775505065918,351.4775505065918,351.4775505065918,355.96906781196594,1,4.634026527404785,None,,,,,,,,,,,,,,,,,,5,2,2025-02-12_15h59.48.107,comp,2024.2.5,56.624154378063714,2025-02-12 16h05.46.068308 -0500,
45,45,0,filler_square,None,None,None,None,None,None,None,None,None,None,2,0.034420013427734375,None,,,,,0,0,0,0,0,45,45,171,355.9834260940552,,,,,,,,,,,,,,,,,,,,,,,,,,,,,,,,,,,,,,,,,,,,,,,,,,,,,,,,,,,,,,,,,,,,,,,,,,,,,,,,,59.92749226315756,64.12744657150624,65.57531317706469,70.81058491162523,72.26346493773976,72.26346493773976,3.0,3.2,-163,-283,0,9,168,267,355.97087240219116,355.9709553718567,355.97392988204956,355.9834260940552,,,,,,,,356.03021693229675,2,0.034420013427734375,None,,,,,,,,,,,,,,,,,,5,2,2025-02-12_15h59.48.107,comp,2024.2.5,56.624154378063714,2025-02-12 16h05.46.068308 -0500,
46,46,0,critical,wdh,60.0,1.0,upper,125.0,200.0,100.0,100.0,200.0,125.0,1,1.7236201763153076,None,,,,,0,0,0,0,0,46,46,79,356.0462222099304,,,,,,,,,,,,,,,,,,,,,,,,,,,,,,,,,,,,,,,,,,,,,,,,,,,,,,,,,,,,,,,,,,,,,,,,,,,,,,,,,125.0,200.0,100.0,100.0,200.0,125.0,1.0,1.2,-246,2,0,-19,208,-8,356.031751871109,356.03182888031006,356.0352804660797,356.0462222099304,356.19556403160095,356.19556403160095,356.19556403160095,356.19556403160095,356.19556403160095,356.19556403160095,356.19556403160095,357.7800920009613,1,1.7236201763153076,None,,,,,,,,,,,,,,,,,,5,2,2025-02-12_15h59.48.107,comp,2024.2.5,56.624154378063714,2025-02-12 16h05.46.068308 -0500,
47,47,0,critical,dhw,60.0,3.0,lower,55.0,55.0,133.0,57.0,57.0,133.0,2,0.0046443939208984375,None,,,,,0,0,0,0,0,47,47,56,357.797226190567,,,,,,,,,,,,,,,,,,,,,,,,,,,,,,,,,,,,,,,,,,,,,,,,,,,,,,,,,,,,,,,,,,,,,,,,,,,,,,,,,55.0,55.0,133.0,57.0,57.0,133.0,3.0,3.1,-152,271,0,-8,191,-265,357.7817692756653,357.781898021698,357.78528094291687,357.797226190567,,,,,,,,357.8171706199646,2,0.0046443939208984375,None,,,,,,,,,,,,,,,,,,5,2,2025-02-12_15h59.48.107,comp,2024.2.5,56.624154378063714,2025-02-12 16h05.46.068308 -0500,
48,48,0,catch,None,None,None,None,None,None,None,None,None,None,2,0.9829204082489014,None,,,,,0,0,0,0,0,48,48,127,357.8349914550781,,,,,,,,,,,,,,,,,,,,,,,,,,,,,,,,,,,,,,,,,,,,,,,,,,,,,,,,,,,,,,,,,,,,,,,,,,,,,,,,,96,94,187,138,111,79,2.1,2.12,-212,-282,0,-266,204,257,357.8191809654236,357.81926012039185,357.8224151134491,357.8349914550781,357.98105025291443,357.98105025291443,357.98105025291443,357.98105025291443,357.98105025291443,357.98105025291443,357.98105025291443,358.830374956131,2,0.9829204082489014,None,,,,,,,,,,,,,,,,,,5,2,2025-02-12_15h59.48.107,comp,2024.2.5,56.624154378063714,2025-02-12 16h05.46.068308 -0500,
49,49,0,critical,dhw,45.0,3.0,upper,117.0,117.0,200.0,125.0,125.0,200.0,3,2.4507861137390137,None,,,,,0,0,0,0,0,49,49,51,358.8470108509064,,,,,,,,,,,,,,,,,,,,,,,,,,,,,,,,,,,,,,,,,,,,,,,,,,,,,,,,,,,,,,,,,,,,,,,,,,,,,,,,,117.0,117.0,200.0,125.0,125.0,200.0,3.0,3.2,-217,-269,0,-10,258,258,358.83197712898254,358.8320565223694,358.83517932891846,358.8470108509064,358.9990496635437,358.9990496635437,358.9990496635437,358.9990496635437,358.9990496635437,358.9990496635437,358.9990496635437,361.3151898384094,3,2.4507861137390137,None,,,,,,,,,,,,,,,,,,5,2,2025-02-12_15h59.48.107,comp,2024.2.5,56.624154378063714,2025-02-12 16h05.46.068308 -0500,
50,50,0,filler_square,None,None,None,None,None,None,None,None,None,None,3,4.062047243118286,None,,,,,0,0,0,0,0,50,50,199,361.33163237571716,,,,,,,,,,,,,,,,,,,,,,,,,,,,,,,,,,,,,,,,,,,,,,,,,,,,,,,,,,,,,,,,,,,,,,,,,,,,,,,,,183.44013986899512,172.7369617255165,77.22063233616876,146.01188310614248,193.70056678066365,193.70056678066365,1.0,1.2,-255,16,0,14,266,-4,361.31706857681274,361.31717467308044,361.3203852176666,361.33163237571716,361.4714426994324,361.4714426994324,361.4714426994324,361.4714426994324,361.4714426994324,361.4714426994324,361.4714426994324,365.40543723106384,3,4.062047243118286,None,,,,,,,,,,,,,,,,,,5,2,2025-02-12_15h59.48.107,comp,2024.2.5,56.624154378063714,2025-02-12 16h05.46.068308 -0500,
51,51,0,catch,None,None,None,None,None,None,None,None,None,None,3,2.4843451976776123,None,,,,,0,0,0,0,0,51,51,120,365.4220595359802,,,,,,,,,,,,,,,,,,,,,,,,,,,,,,,,,,,,,,,,,,,,,,,,,,,,,,,,,,,,,,,,,,,,,,,,,,,,,,,,,74,116,130,60,185,140,2.2,2.22,-184,250,0,-254,196,-288,365.4076271057129,365.4077093601227,365.4109687805176,365.4220595359802,365.5673153400421,365.5673153400421,365.5673153400421,365.5673153400421,365.5673153400421,365.5673153400421,365.5673153400421,367.9244689941406,3,2.4843451976776123,None,,,,,,,,,,,,,,,,,,5,2,2025-02-12_15h59.48.107,comp,2024.2.5,56.624154378063714,2025-02-12 16h05.46.068308 -0500,
52,52,0,critical,dwh,60.0,4.0,lower,55.0,55.0,57.0,133.0,133.0,57.0,3,5.8137006759643555,None,,,,,0,0,0,0,0,52,52,70,367.9400248527527,,,,,,,,,,,,,,,,,,,,,,,,,,,,,,,,,,,,,,,,,,,,,,,,,,,,,,,,,,,,,,,,,,,,,,,,,,,,,,,,,55.0,55.0,57.0,133.0,133.0,57.0,4.0,4.1,-190,-250,0,-3,191,-272,367.9260764122009,367.92620849609375,367.9296109676361,367.9400248527527,368.08820605278015,368.08820605278015,368.08820605278015,368.08820605278015,368.08820605278015,368.08820605278015,368.08820605278015,373.7686538696289,3,5.8137006759643555,None,,,,,,,,,,,,,,,,,,5,2,2025-02-12_15h59.48.107,comp,2024.2.5,56.624154378063714,2025-02-12 16h05.46.068308 -0500,
53,53,0,catch,None,None,None,None,None,None,None,None,None,None,3,1.643669605255127,None,,,,,0,0,0,0,0,53,53,125,373.78982162475586,,,,,,,,,,,,,,,,,,,,,,,,,,,,,,,,,,,,,,,,,,,,,,,,,,,,,,,,,,,,,,,,,,,,,,,,,,,,,,,,,78,112,61,129,169,156,1.0,1.2,-216,-10,0,18,238,-10,373.770592212677,373.770672082901,373.77404522895813,373.78982162475586,373.93860912323,373.93860912323,373.93860912323,373.93860912323,373.93860912323,373.93860912323,373.93860912323,375.4365773200989,3,1.643669605255127,None,,,,,,,,,,,,,,,,,,5,2,2025-02-12_15h59.48.107,comp,2024.2.5,56.624154378063714,2025-02-12 16h05.46.068308 -0500,
54,54,0,critical,wdh,45.0,1.0,lower,57.0,133.0,65.0,65.0,133.0,57.0,3,3.9808220863342285,None,,,,,0,0,0,0,0,54,54,72,375.4530463218689,,,,,,,,,,,,,,,,,,,,,,,,,,,,,,,,,,,,,,,,,,,,,,,,,,,,,,,,,,,,,,,,,,,,,,,,,,,,,,,,,57.0,133.0,65.0,65.0,133.0,57.0,1.0,1.2,-195,-4,0,0,157,15,375.43809509277344,375.43822717666626,375.44242000579834,375.4530463218689,375.6033637523651,375.6033637523651,375.6033637523651,375.6033637523651,375.6033637523651,375.6033637523651,375.6033637523651,379.43683886528015,3,3.9808220863342285,None,,,,,,,,,,,,,,,,,,5,2,2025-02-12_15h59.48.107,comp,2024.2.5,56.624154378063714,2025-02-12 16h05.46.068308 -0500,
55,55,0,filler_square,None,None,None,None,None,None,None,None,None,None,3,1.9319899082183838,None,,,,,0,0,0,0,0,55,55,176,379.4536838531494,,,,,,,,,,,,,,,,,,,,,,,,,,,,,,,,,,,,,,,,,,,,,,,,,,,,,,,,,,,,,,,,,,,,,,,,,,,,,,,,,67.01707724261658,66.22132774800772,102.30017570027094,59.38374859718101,118.04303501232802,118.04303501232802,1.0,1.2,-159,-13,0,7,185,-6,379.438782453537,379.4388611316681,379.44259881973267,379.4536838531494,379.6062033176422,379.6062033176422,379.6062033176422,379.6062033176422,379.6062033176422,379.6062033176422,379.6062033176422,381.3877308368683,3,1.9319899082183838,None,,,,,,,,,,,,,,,,,,5,2,2025-02-12_15h59.48.107,comp,2024.2.5,56.624154378063714,2025-02-12 16h05.46.068308 -0500,
56,56,0,filler_random,None,None,None,None,None,None,None,None,None,None,1,1.7335755825042725,None,,,,,0,0,0,0,0,56,56,152,381.40434861183167,,,,,,,,,,,,,,,,,,,,,,,,,,,,,,,,,,,,,,,,,,,,,,,,,,,,,,,,,,,,,,,,,,,,,,,,,,,,,,,,,133.8913361901955,185.31695697375238,91.73171770025951,146.55505842661978,93.22626560531089,106.38770043072927,2.2,2.22,-262,285,0,-259,222,-286,381.3894338607788,381.38950991630554,381.39279556274414,381.40434861183167,381.5645840167999,381.5645840167999,381.5645840167999,381.5645840167999,381.5645840167999,381.5645840167999,381.5645840167999,383.1453468799591,1,1.7335755825042725,None,,,,,,,,,,,,,,,,,,5,2,2025-02-12_15h59.48.107,comp,2024.2.5,56.624154378063714,2025-02-12 16h05.46.068308 -0500,
57,57,0,filler_random,None,None,None,None,None,None,None,None,None,None,3,2.3158304691314697,None,,,,,0,0,0,0,0,57,57,159,383.1663587093353,,,,,,,,,,,,,,,,,,,,,,,,,,,,,,,,,,,,,,,,,,,,,,,,,,,,,,,,,,,,,,,,,,,,,,,,,,,,,,,,,161.51354445276706,148.22644148667985,117.10978715267416,137.7452317142632,184.97522881562872,157.51673477676437,4.0,4.1,-239,-275,0,18,244,-256,383.1472554206848,383.14733624458313,383.1505467891693,383.1663587093353,383.30537462234497,383.30537462234497,383.30537462234497,383.30537462234497,383.30537462234497,383.30537462234497,383.30537462234497,385.4885857105255,3,2.3158304691314697,None,,,,,,,,,,,,,,,,,,5,2,2025-02-12_15h59.48.107,comp,2024.2.5,56.624154378063714,2025-02-12 16h05.46.068308 -0500,
58,58,0,critical,hwd,45.0,2.1,upper,200.0,125.0,125.0,200.0,117.0,117.0,2,4.7676873207092285,None,,,,,0,0,0,0,0,58,58,41,385.5053505897522,,,,,,,,,,,,,,,,,,,,,,,,,,,,,,,,,,,,,,,,,,,,,,,,,,,,,,,,,,,,,,,,,,,,,,,,,,,,,,,,,200.0,125.0,125.0,200.0,117.0,117.0,2.1,2.11,-258,265,0,252,254,-260,385.4903395175934,385.49041724205017,385.49362993240356,385.5053505897522,385.6618185043335,385.6618185043335,385.6618185043335,385.6618185043335,385.6618185043335,385.6618185043335,385.6618185043335,390.2754111289978,2,4.7676873207092285,None,,,,,,,,,,,,,,,,,,5,2,2025-02-12_15h59.48.107,comp,2024.2.5,56.624154378063714,2025-02-12 16h05.46.068308 -0500,
59,59,0,critical,whd,60.0,2.1,upper,125.0,200.0,200.0,125.0,100.0,100.0,1,2.3657803535461426,None,,,,,0,0,0,0,0,59,59,39,390.2913541793823,,,,,,,,,,,,,,,,,,,,,,,,,,,,,,,,,,,,,,,,,,,,,,,,,,,,,,,,,,,,,,,,,,,,,,,,,,,,,,,,,125.0,200.0,200.0,125.0,100.0,100.0,2.1,2.11,-258,285,0,266,208,-280,390.27702951431274,390.27718901634216,390.2805914878845,390.2913541793823,390.4409098625183,390.4409098625183,390.4409098625183,390.4409098625183,390.4409098625183,390.4409098625183,390.4409098625183,392.65990710258484,1,2.3657803535461426,None,,,,,,,,,,,,,,,,,,5,2,2025-02-12_15h59.48.107,comp,2024.2.5,56.624154378063714,2025-02-12 16h05.46.068308 -0500,
60,60,0,critical,whd,45.0,2.1,lower,57.0,133.0,133.0,57.0,65.0,65.0,2,18.72830557823181,None,,,,,0,0,0,0,0,60,60,36,392.6804883480072,,,,,,,,,,,,,,,,,,,,,,,,,,,,,,,,,,,,,,,,,,,,,,,,,,,,,,,,,,,,,,,,,,,,,,,,,,,,,,,,,57.0,133.0,133.0,57.0,65.0,65.0,2.1,2.12,-191,-275,0,-280,157,280,392.661518573761,392.6616053581238,392.6648015975952,392.6804883480072,392.82504749298096,392.82504749298096,392.82504749298096,392.82504749298096,392.82504749298096,392.82504749298096,392.82504749298096,411.4180357456207,2,18.72830557823181,None,,,,,,,,,,,,,,,,,,5,2,2025-02-12_15h59.48.107,comp,2024.2.5,56.624154378063714,2025-02-12 16h05.46.068308 -0500,
61,61,0,critical,hwd,60.0,2.1,upper,200.0,125.0,125.0,200.0,100.0,100.0,2,4.943194150924683,None,,,,,0,0,0,0,0,61,61,43,411.4331934452057,,,,,,,,,,,,,,,,,,,,,,,,,,,,,,,,,,,,,,,,,,,,,,,,,,,,,,,,,,,,,,,,,,,,,,,,,,,,,,,,,200.0,125.0,125.0,200.0,100.0,100.0,2.1,2.12,-258,-264,0,-253,246,264,411.4197566509247,411.41989254951477,411.42324328422546,411.4331934452057,411.584269285202,411.584269285202,411.584269285202,411.584269285202,411.584269285202,411.584269285202,411.584269285202,416.3897705078125,2,4.943194150924683,None,,,,,,,,,,,,,,,,,,5,2,2025-02-12_15h59.48.107,comp,2024.2.5,56.624154378063714,2025-02-12 16h05.46.068308 -0500,
62,62,0,critical,dwh,60.0,3.0,lower,55.0,55.0,57.0,133.0,133.0,57.0,3,3.368870973587036,None,,,,,0,0,0,0,0,62,62,68,416.40752148628235,,,,,,,,,,,,,,,,,,,,,,,,,,,,,,,,,,,,,,,,,,,,,,,,,,,,,,,,,,,,,,,,,,,,,,,,,,,,,,,,,55.0,55.0,57.0,133.0,133.0,57.0,3.0,3.2,-190,-277,0,-1,191,252,416.3913507461548,416.39143109321594,416.3943190574646,416.40752148628235,416.54743552207947,416.54743552207947,416.54743552207947,416.54743552207947,416.54743552207947,416.54743552207947,416.54743552207947,419.7916648387909,3,3.368870973587036,None,,,,,,,,,,,,,,,,,,5,2,2025-02-12_15h59.48.107,comp,2024.2.5,56.624154378063714,2025-02-12 16h05.46.068308 -0500,
63,63,0,critical,dwh,45.0,3.0,lower,65.0,65.0,57.0,133.0,133.0,57.0,3,1.088810920715332,None,,,,,0,0,0,0,0,63,63,62,419.8074097633362,,,,,,,,,,,,,,,,,,,,,,,,,,,,,,,,,,,,,,,,,,,,,,,,,,,,,,,,,,,,,,,,,,,,,,,,,,,,,,,,,65.0,65.0,57.0,133.0,133.0,57.0,3.0,3.2,-195,-267,0,13,191,251,419.7932403087616,419.7933158874512,419.7961781024933,419.8074097633362,419.94801902770996,419.94801902770996,419.94801902770996,419.94801902770996,419.94801902770996,419.94801902770996,419.94801902770996,420.9074983596802,3,1.088810920715332,None,,,,,,,,,,,,,,,,,,5,2,2025-02-12_15h59.48.107,comp,2024.2.5,56.624154378063714,2025-02-12 16h05.46.068308 -0500,
64,64,0,critical,hwd,60.0,3.0,lower,133.0,57.0,57.0,133.0,55.0,55.0,1,2.5489749908447266,None,,,,,0,0,0,0,0,64,64,104,420.92417669296265,,,,,,,,,,,,,,,,,,,,,,,,,,,,,,,,,,,,,,,,,,,,,,,,,,,,,,,,,,,,,,,,,,,,,,,,,,,,,,,,,133.0,57.0,57.0,133.0,55.0,55.0,3.0,3.1,-191,280,0,4,190,-263,420.90912199020386,420.909273147583,420.91264390945435,420.92417669296265,421.0660390853882,421.0660390853882,421.0660390853882,421.0660390853882,421.0660390853882,421.0660390853882,421.0660390853882,423.4839856624603,1,2.5489749908447266,None,,,,,,,,,,,,,,,,,,5,2,2025-02-12_15h59.48.107,comp,2024.2.5,56.624154378063714,2025-02-12 16h05.46.068308 -0500,
65,65,0,critical,wdh,60.0,2.1,lower,57.0,133.0,55.0,55.0,133.0,57.0,3,2.15792179107666,None,,,,,0,0,0,0,0,65,65,34,423.498526096344,,,,,,,,,,,,,,,,,,,,,,,,,,,,,,,,,,,,,,,,,,,,,,,,,,,,,,,,,,,,,,,,,,,,,,,,,,,,,,,,,57.0,133.0,55.0,55.0,133.0,57.0,2.1,2.12,-190,-257,0,-273,152,286,423.4855737686157,423.4856548309326,423.4889807701111,423.498526096344,423.64808320999146,423.64808320999146,423.64808320999146,423.64808320999146,423.64808320999146,423.64808320999146,423.64808320999146,425.6687366962433,3,2.15792179107666,None,,,,,,,,,,,,,,,,,,5,2,2025-02-12_15h59.48.107,comp,2024.2.5,56.624154378063714,2025-02-12 16h05.46.068308 -0500,
66,66,0,critical,hdw,45.0,2.1,lower,133.0,57.0,65.0,65.0,57.0,133.0,3,1.628089427947998,None,,,,,0,0,0,0,0,66,66,20,425.684734582901,,,,,,,,,,,,,,,,,,,,,,,,,,,,,,,,,,,,,,,,,,,,,,,,,,,,,,,,,,,,,,,,,,,,,,,,,,,,,,,,,133.0,57.0,65.0,65.0,57.0,133.0,2.1,2.12,-157,-253,0,-265,195,270,425.67028999328613,425.6703898906708,425.6744360923767,425.684734582901,425.8346037864685,425.8346037864685,425.8346037864685,425.8346037864685,425.8346037864685,425.8346037864685,425.8346037864685,427.31820702552795,3,1.628089427947998,None,,,,,,,,,,,,,,,,,,5,2,2025-02-12_15h59.48.107,comp,2024.2.5,56.624154378063714,2025-02-12 16h05.46.068308 -0500,
67,67,0,filler_square,None,None,None,None,None,None,None,None,None,None,1,1.3459532260894775,None,,,,,0,0,0,0,0,67,67,191,427.3348774909973,,,,,,,,,,,,,,,,,,,,,,,,,,,,,,,,,,,,,,,,,,,,,,,,,,,,,,,,,,,,,,,,,,,,,,,,,,,,,,,,,170.82341202131101,170.82341202131101,157.8470674258332,68.8062942693391,162.22164514607314,134.93522210818304,4.0,4.1,-216,-275,0,-3,198,-267,427.3200328350067,427.32011318206787,427.3232247829437,427.3348774909973,427.48785972595215,427.48785972595215,427.48785972595215,427.48785972595215,427.48785972595215,427.48785972595215,427.48785972595215,428.6864733695984,1,1.3459532260894775,None,,,,,,,,,,,,,,,,,,5,2,2025-02-12_15h59.48.107,comp,2024.2.5,56.624154378063714,2025-02-12 16h05.46.068308 -0500,
68,68,0,critical,dwh,45.0,4.0,lower,65.0,65.0,57.0,133.0,133.0,57.0,3,2.9062209129333496,None,,,,,0,0,0,0,0,68,68,64,428.7022228240967,,,,,,,,,,,,,,,,,,,,,,,,,,,,,,,,,,,,,,,,,,,,,,,,,,,,,,,,,,,,,,,,,,,,,,,,,,,,,,,,,65.0,65.0,57.0,133.0,133.0,57.0,4.0,4.1,-195,-289,0,7,191,-272,428.6879906654358,428.6880748271942,428.69149255752563,428.7022228240967,428.8512942790985,428.8512942790985,428.8512942790985,428.8512942790985,428.8512942790985,428.8512942790985,428.8512942790985,431.6241886615753,3,2.9062209129333496,None,,,,,,,,,,,,,,,,,,5,2,2025-02-12_15h59.48.107,comp,2024.2.5,56.624154378063714,2025-02-12 16h05.46.068308 -0500,
69,69,0,filler_square,None,None,None,None,None,None,None,None,None,None,1,5.008650779724121,None,,,,,0,0,0,0,0,69,69,186,431.63920998573303,,,,,,,,,,,,,,,,,,,,,,,,,,,,,,,,,,,,,,,,,,,,,,,,,,,,,,,,,,,,,,,,,,,,,,,,,,,,,,,,,91.90554296464566,91.90554296464566,61.9519696180211,66.51979954503282,73.55779890900186,58.78943582314441,2.2,2.21,-175,-265,0,253,159,268,431.6259686946869,431.6260528564453,431.6289346218109,431.63920998573303,431.7854902744293,431.7854902744293,431.7854902744293,431.7854902744293,431.7854902744293,431.7854902744293,431.7854902744293,436.66152906417847,1,5.008650779724121,None,,,,,,,,,,,,,,,,,,5,2,2025-02-12_15h59.48.107,comp,2024.2.5,56.624154378063714,2025-02-12 16h05.46.068308 -0500,
70,70,0,critical,dwh,60.0,2.1,upper,100.0,100.0,125.0,200.0,200.0,125.0,2,3.9942095279693604,None,,,,,0,0,0,0,0,70,70,7,436.678111076355,,,,,,,,,,,,,,,,,,,,,,,,,,,,,,,,,,,,,,,,,,,,,,,,,,,,,,,,,,,,,,,,,,,,,,,,,,,,,,,,,100.0,100.0,125.0,200.0,200.0,125.0,2.1,2.11,-246,269,0,283,258,-266,436.6632966995239,436.66337609291077,436.6667854785919,436.678111076355,436.8200328350067,436.8200328350067,436.8200328350067,436.8200328350067,436.8200328350067,436.8200328350067,436.8200328350067,440.6760218143463,2,3.9942095279693604,None,,,,,,,,,,,,,,,,,,5,2,2025-02-12_15h59.48.107,comp,2024.2.5,56.624154378063714,2025-02-12 16h05.46.068308 -0500,
71,71,0,critical,hwd,60.0,4.0,upper,200.0,125.0,125.0,200.0,100.0,100.0,2,6.803231477737427,None,,,,,0,0,0,0,0,71,71,107,440.6922731399536,,,,,,,,,,,,,,,,,,,,,,,,,,,,,,,,,,,,,,,,,,,,,,,,,,,,,,,,,,,,,,,,,,,,,,,,,,,,,,,,,200.0,125.0,125.0,200.0,100.0,100.0,4.0,4.1,-258,-285,0,-14,246,-253,440.67775893211365,440.67784237861633,440.6807384490967,440.6922731399536,440.83925318717957,440.83925318717957,440.83925318717957,440.83925318717957,440.83925318717957,440.83925318717957,440.83925318717957,447.51296496391296,2,6.803231477737427,None,,,,,,,,,,,,,,,,,,5,2,2025-02-12_15h59.48.107,comp,2024.2.5,56.624154378063714,2025-02-12 16h05.46.068308 -0500,
72,72,0,filler_square,None,None,None,None,None,None,None,None,None,None,2,1.2186250686645508,None,,,,,0,0,0,0,0,72,72,188,447.53369212150574,,,,,,,,,,,,,,,,,,,,,,,,,,,,,,,,,,,,,,,,,,,,,,,,,,,,,,,,,,,,,,,,,,,,,,,,,,,,,,,,,61.85728586273257,77.74110403761648,136.36664407774106,136.36664407774106,123.62437434717391,85.90648863939616,3.0,3.2,-203,-260,0,1,207,290,447.51502561569214,447.5151071548462,447.51839113235474,447.53369212150574,447.6743161678314,447.6743161678314,447.6743161678314,447.6743161678314,447.6743161678314,447.6743161678314,447.6743161678314,448.7592067718506,2,1.2186250686645508,None,,,,,,,,,,,,,,,,,,5,2,2025-02-12_15h59.48.107,comp,2024.2.5,56.624154378063714,2025-02-12 16h05.46.068308 -0500,
73,73,0,catch,None,None,None,None,None,None,None,None,None,None,3,1.1998670101165771,None,,,,,0,0,0,0,0,73,73,123,448.77587509155273,,,,,,,,,,,,,,,,,,,,,,,,,,,,,,,,,,,,,,,,,,,,,,,,,,,,,,,,,,,,,,,,,,,,,,,,,,,,,,,,,61,129,124,66,140,185,1.0,1.2,-194,-18,0,-4,222,-13,448.7614059448242,448.7614896297455,448.7650864124298,448.77587509155273,448.91697359085083,448.91697359085083,448.91697359085083,448.91697359085083,448.91697359085083,448.91697359085083,448.91697359085083,449.9934597015381,3,1.1998670101165771,None,,,,,,,,,,,,,,,,,,5,2,2025-02-12_15h59.48.107,comp,2024.2.5,56.624154378063714,2025-02-12 16h05.46.068308 -0500,
74,74,0,filler_random,None,None,None,None,None,None,None,None,None,None,1,1.9337124824523926,None,,,,,0,0,0,0,0,74,74,149,450.0098865032196,,,,,,,,,,,,,,,,,,,,,,,,,,,,,,,,,,,,,,,,,,,,,,,,,,,,,,,,,,,,,,,,,,,,,,,,,,,,,,,,,100.0677700085467,105.6235835132953,131.153598559369,81.45647300599504,91.89978244006232,97.26177301884681,2.1,2.12,-190,-273,0,-278,185,280,449.9954011440277,449.9954831600189,449.9986984729767,450.0098865032196,450.1581757068634,450.1581757068634,450.1581757068634,450.1581757068634,450.1581757068634,450.1581757068634,450.1581757068634,451.95657324790955,1,1.9337124824523926,None,,,,,,,,,,,,,,,,,,5,2,2025-02-12_15h59.48.107,comp,2024.2.5,56.624154378063714,2025-02-12 16h05.46.068308 -0500,
75,75,0,filler_random,None,None,None,None,None,None,None,None,None,None,1,1.5004658699035645,None,,,,,0,0,0,0,0,75,75,148,451.9719121456146,,,,,,,,,,,,,,,,,,,,,,,,,,,,,,,,,,,,,,,,,,,,,,,,,,,,,,,,,,,,,,,,,,,,,,,,,,,,,,,,,160.22298381736692,158.98025485889224,112.48373126074824,70.17959130260492,133.4322664126272,130.1457724291716,2.1,2.11,-211,266,0,280,196,-274,451.9582459926605,451.9583213329315,451.9611644744873,451.9719121456146,452.1236310005188,452.1236310005188,452.1236310005188,452.1236310005188,452.1236310005188,452.1236310005188,452.1236310005188,453.4779748916626,1,1.5004658699035645,None,,,,,,,,,,,,,,,,,,5,2,2025-02-12_15h59.48.107,comp,2024.2.5,56.624154378063714,2025-02-12 16h05.46.068308 -0500,
76,76,0,filler_random,None,None,None,None,None,None,None,None,None,None,1,1.993530511856079,None,,,,,0,0,0,0,0,76,76,134,453.49435544013977,,,,,,,,,,,,,,,,,,,,,,,,,,,,,,,,,,,,,,,,,,,,,,,,,,,,,,,,,,,,,,,,,,,,,,,,,,,,,,,,,127.23900046266282,174.6304748845801,155.6417322317643,143.88860049515625,71.64388800882224,164.22446279260538,4.0,4.2,-255,15,0,-260,250,16,453.47994017601013,453.4800486564636,453.48345732688904,453.49435544013977,453.6420304775238,453.6420304775238,453.6420304775238,453.6420304775238,453.6420304775238,453.6420304775238,453.6420304775238,455.4934003353119,1,1.993530511856079,None,,,,,,,,,,,,,,,,,,5,2,2025-02-12_15h59.48.107,comp,2024.2.5,56.624154378063714,2025-02-12 16h05.46.068308 -0500,
77,77,0,critical,dwh,60.0,2.1,lower,55.0,55.0,57.0,133.0,133.0,57.0,3,4.6708385944366455,None,,,,,0,0,0,0,0,77,77,6,455.51272773742676,,,,,,,,,,,,,,,,,,,,,,,,,,,,,,,,,,,,,,,,,,,,,,,,,,,,,,,,,,,,,,,,,,,,,,,,,,,,,,,,,55.0,55.0,57.0,133.0,133.0,57.0,2.1,2.11,-190,282,0,251,191,-275,455.4948592185974,455.4949390888214,455.4980261325836,455.51272773742676,455.66045117378235,455.66045117378235,455.66045117378235,455.66045117378235,455.66045117378235,455.66045117378235,455.66045117378235,460.1932301521301,3,4.6708385944366455,None,,,,,,,,,,,,,,,,,,5,2,2025-02-12_15h59.48.107,comp,2024.2.5,56.624154378063714,2025-02-12 16h05.46.068308 -0500,
78,78,0,filler_random,None,None,None,None,None,None,None,None,None,None,2,1.9158363342285156,None,,,,,0,0,0,0,0,78,78,140,460.21137619018555,,,,,,,,,,,,,,,,,,,,,,,,,,,,,,,,,,,,,,,,,,,,,,,,,,,,,,,,,,,,,,,,,,,,,,,,,,,,,,,,,72.95974067696062,118.01516224256841,186.1507676526915,74.25223894341809,110.82135711908163,111.63004468288972,1.0,1.1,-672,271,-480,260,-291,258,460.1950283050537,460.19510865211487,460.19827342033386,460.21137619018555,460.3607029914856,460.3607029914856,460.3607029914856,460.3607029914856,460.3607029914856,460.3607029914856,460.3607029914856,462.1444454193115,2,1.9158363342285156,None,,,,,,,,,,,,,,,,,,5,2,2025-02-12_15h59.48.107,comp,2024.2.5,56.624154378063714,2025-02-12 16h05.46.068308 -0500,
79,79,0,critical,hdw,45.0,3.0,lower,133.0,57.0,65.0,65.0,57.0,133.0,3,3.9802627563476562,None,,,,,0,0,0,0,0,79,79,110,462.1633608341217,,,,,,,,,,,,,,,,,,,,,,,,,,,,,,,,,,,,,,,,,,,,,,,,,,,,,,,,,,,,,,,,,,,,,,,,,,,,,,,,,133.0,57.0,65.0,65.0,57.0,133.0,3.0,3.1,-157,280,0,19,195,-258,462.14600706100464,462.1460933685303,462.14950585365295,462.1633608341217,462.3112530708313,462.3112530708313,462.3112530708313,462.3112530708313,462.3112530708313,462.3112530708313,462.3112530708313,466.14754366874695,3,3.9802627563476562,None,,,,,,,,,,,,,,,,,,5,2,2025-02-12_15h59.48.107,comp,2024.2.5,56.624154378063714,2025-02-12 16h05.46.068308 -0500,
80,80,0,filler_random,None,None,None,None,None,None,None,None,None,None,1,4.147564649581909,None,,,,,0,0,0,0,0,80,80,139,466.1633925437927,,,,,,,,,,,,,,,,,,,,,,,,,,,,,,,,,,,,,,,,,,,,,,,,,,,,,,,,,,,,,,,,,,,,,,,,,,,,,,,,,120.16985478702992,115.80716283001917,131.516646623128,101.71610367822586,106.38893786074308,109.69320237993233,1.0,1.1,-685,280,-480,269,-278,259,466.1494302749634,466.1495153903961,466.1526691913605,466.1633925437927,466.31047010421753,466.31047010421753,466.31047010421753,466.31047010421753,466.31047010421753,466.31047010421753,466.31047010421753,470.31549286842346,1,4.147564649581909,None,,,,,,,,,,,,,,,,,,5,2,2025-02-12_15h59.48.107,comp,2024.2.5,56.624154378063714,2025-02-12 16h05.46.068308 -0500,
81,81,0,filler_square,None,None,None,None,None,None,None,None,None,None,1,2.308067798614502,None,,,,,0,0,0,0,0,81,81,173,470.3318030834198,,,,,,,,,,,,,,,,,,,,,,,,,,,,,,,,,,,,,,,,,,,,,,,,,,,,,,,,,,,,,,,,,,,,,,,,,,,,,,,,,98.55131958809316,98.55131958809316,81.2601490519955,80.87233027806877,57.34303861918954,72.30989647224698,2.1,2.12,-186,-270,0,-270,173,274,470.3174092769623,470.3174901008606,470.32090616226196,470.3318030834198,470.4874997138977,470.4874997138977,470.4874997138977,470.4874997138977,470.4874997138977,470.4874997138977,470.4874997138977,472.64802050590515,1,2.308067798614502,None,,,,,,,,,,,,,,,,,,5,2,2025-02-12_15h59.48.107,comp,2024.2.5,56.624154378063714,2025-02-12 16h05.46.068308 -0500,
82,82,0,critical,dwh,45.0,3.0,upper,117.0,117.0,125.0,200.0,200.0,125.0,3,5.47013783454895,None,,,,,0,0,0,0,0,82,82,63,472.66459679603577,,,,,,,,,,,,,,,,,,,,,,,,,,,,,,,,,,,,,,,,,,,,,,,,,,,,,,,,,,,,,,,,,,,,,,,,,,,,,,,,,117.0,117.0,125.0,200.0,200.0,125.0,3.0,3.1,-254,252,0,5,258,-285,472.64956498146057,472.64964413642883,472.65303349494934,472.66459679603577,472.8197433948517,472.8197433948517,472.8197433948517,472.8197433948517,472.8197433948517,472.8197433948517,472.8197433948517,478.1502001285553,3,5.47013783454895,None,,,,,,,,,,,,,,,,,,5,2,2025-02-12_15h59.48.107,comp,2024.2.5,56.624154378063714,2025-02-12 16h05.46.068308 -0500,
83,83,0,critical,wdh,45.0,2.1,lower,57.0,133.0,65.0,65.0,133.0,57.0,1,2.734987497329712,None,,,,,0,0,0,0,0,83,83,32,478.16807436943054,,,,,,,,,,,,,,,,,,,,,,,,,,,,,,,,,,,,,,,,,,,,,,,,,,,,,,,,,,,,,,,,,,,,,,,,,,,,,,,,,57.0,133.0,65.0,65.0,133.0,57.0,2.1,2.11,-195,265,0,250,157,-268,478.1517152786255,478.1517930030823,478.15532994270325,478.16807436943054,478.32156586647034,478.32156586647034,478.32156586647034,478.32156586647034,478.32156586647034,478.32156586647034,478.32156586647034,480.9067051410675,1,2.734987497329712,None,,,,,,,,,,,,,,,,,,5,2,2025-02-12_15h59.48.107,comp,2024.2.5,56.624154378063714,2025-02-12 16h05.46.068308 -0500,
84,84,0,critical,whd,60.0,2.1,lower,57.0,133.0,133.0,57.0,55.0,55.0,1,4.64232063293457,None,,,,,0,0,0,0,0,84,84,38,480.9243233203888,,,,,,,,,,,,,,,,,,,,,,,,,,,,,,,,,,,,,,,,,,,,,,,,,,,,,,,,,,,,,,,,,,,,,,,,,,,,,,,,,57.0,133.0,133.0,57.0,55.0,55.0,2.1,2.12,-191,-284,0,-255,152,272,480.908234834671,480.90831303596497,480.911212682724,480.9243233203888,481.06929540634155,481.06929540634155,481.06929540634155,481.06929540634155,481.06929540634155,481.06929540634155,481.06929540634155,485.583997964859,1,4.64232063293457,None,,,,,,,,,,,,,,,,,,5,2,2025-02-12_15h59.48.107,comp,2024.2.5,56.624154378063714,2025-02-12 16h05.46.068308 -0500,
85,85,0,critical,wdh,45.0,4.0,upper,125.0,200.0,117.0,117.0,200.0,125.0,3,6.503182411193848,None,,,,,0,0,0,0,0,85,85,77,485.6001994609833,,,,,,,,,,,,,,,,,,,,,,,,,,,,,,,,,,,,,,,,,,,,,,,,,,,,,,,,,,,,,,,,,,,,,,,,,,,,,,,,,125.0,200.0,117.0,117.0,200.0,125.0,4.0,4.2,-254,3,0,-254,217,-7,485.58550667762756,485.5855875015259,485.5886447429657,485.6001994609833,485.75167202949524,485.75167202949524,485.75167202949524,485.75167202949524,485.75167202949524,485.75167202949524,485.75167202949524,492.10985231399536,3,6.503182411193848,None,,,,,,,,,,,,,,,,,,5,2,2025-02-12_15h59.48.107,comp,2024.2.5,56.624154378063714,2025-02-12 16h05.46.068308 -0500,
86,86,0,critical,hdw,45.0,4.0,lower,133.0,57.0,65.0,65.0,57.0,133.0,3,19.700482606887817,None,,,,,0,0,0,0,0,86,86,112,492.1294164657593,,,,,,,,,,,,,,,,,,,,,,,,,,,,,,,,,,,,,,,,,,,,,,,,,,,,,,,,,,,,,,,,,,,,,,,,,,,,,,,,,133.0,57.0,65.0,65.0,57.0,133.0,4.0,4.1,-157,-251,0,-1,195,-255,492.11134672164917,492.11142897605896,492.1143226623535,492.1294164657593,492.2712769508362,492.2712769508362,492.2712769508362,492.2712769508362,492.2712769508362,492.2712769508362,492.2712769508362,511.8407242298126,3,19.700482606887817,None,,,,,,,,,,,,,,,,,,5,2,2025-02-12_15h59.48.107,comp,2024.2.5,56.624154378063714,2025-02-12 16h05.46.068308 -0500,
87,87,0,filler_random,None,None,None,None,None,None,None,None,None,None,1,1.5246222019195557,None,,,,,0,0,0,0,0,87,87,155,511.85727548599243,,,,,,,,,,,,,,,,,,,,,,,,,,,,,,,,,,,,,,,,,,,,,,,,,,,,,,,,,,,,,,,,,,,,,,,,,,,,,,,,,177.08230339800514,197.7385388858577,59.27616073964431,166.39809076078654,104.10880789789695,160.79063317458883,1.0,1.1,-758,264,-480,279,-220,265,511.8424439430237,511.84252285957336,511.8455238342285,511.85727548599243,512.0110569000244,512.0110569000244,512.0110569000244,512.0110569000244,512.0110569000244,512.0110569000244,512.0110569000244,513.4000244140625,1,1.5246222019195557,None,,,,,,,,,,,,,,,,,,5,2,2025-02-12_15h59.48.107,comp,2024.2.5,56.624154378063714,2025-02-12 16h05.46.068308 -0500,
88,88,0,filler_square,None,None,None,None,None,None,None,None,None,None,2,2.148264169692993,None,,,,,0,0,0,0,0,88,88,208,513.4185516834259,,,,,,,,,,,,,,,,,,,,,,,,,,,,,,,,,,,,,,,,,,,,,,,,,,,,,,,,,,,,,,,,,,,,,,,,,,,,,,,,,73.33145251429151,93.07670870852866,96.28036246015608,96.28036246015608,79.17400882969116,85.56629600760338,4.0,4.2,-191,10,0,-288,187,-6,513.4018893241882,513.4019918441772,513.4049210548401,513.4185516834259,513.5598423480988,513.5598423480988,513.5598423480988,513.5598423480988,513.5598423480988,513.5598423480988,513.5598423480988,515.5844666957855,2,2.148264169692993,None,,,,,,,,,,,,,,,,,,5,2,2025-02-12_15h59.48.107,comp,2024.2.5,56.624154378063714,2025-02-12 16h05.46.068308 -0500,
89,89,0,critical,whd,45.0,1.0,upper,125.0,200.0,200.0,125.0,117.0,117.0,1,3.1956958770751953,None,,,,,0,0,0,0,0,89,89,85,515.60222864151,,,,,,,,,,,,,,,,,,,,,,,,,,,,,,,,,,,,,,,,,,,,,,,,,,,,,,,,,,,,,,,,,,,,,,,,,,,,,,,,,125.0,200.0,200.0,125.0,117.0,117.0,1.0,1.3,222,-257,480,-260,697,-258,515.5859985351562,515.5860755443573,515.5889272689819,515.60222864151,515.7443199157715,515.7443199157715,515.7443199157715,515.7443199157715,515.7443199157715,515.7443199157715,515.7443199157715,518.8114211559296,1,3.1956958770751953,None,,,,,,,,,,,,,,,,,,5,2,2025-02-12_15h59.48.107,comp,2024.2.5,56.624154378063714,2025-02-12 16h05.46.068308 -0500,
90,90,0,filler_square,None,None,None,None,None,None,None,None,None,None,3,1.3396883010864258,None,,,,,0,0,0,0,0,90,90,170,518.8270885944366,,,,,,,,,,,,,,,,,,,,,,,,,,,,,,,,,,,,,,,,,,,,,,,,,,,,,,,,,,,,,,,,,,,,,,,,,,,,,,,,,121.00033235881511,64.71097197874171,107.19576366103651,75.15062551950368,176.7344218786958,176.7344218786958,3.0,3.1,-166,269,0,-12,222,-269,518.813318490982,518.8133990764618,518.8168289661407,518.8270885944366,518.9755761623383,518.9755761623383,518.9755761623383,518.9755761623383,518.9755761623383,518.9755761623383,518.9755761623383,520.1781032085419,3,1.3396883010864258,None,,,,,,,,,,,,,,,,,,5,2,2025-02-12_15h59.48.107,comp,2024.2.5,56.624154378063714,2025-02-12 16h05.46.068308 -0500,
91,91,0,filler_square,None,None,None,None,None,None,None,None,None,None,2,6.310497760772705,None,,,,,0,0,0,0,0,91,91,184,520.1946663856506,,,,,,,,,,,,,,,,,,,,,,,,,,,,,,,,,,,,,,,,,,,,,,,,,,,,,,,,,,,,,,,,,,,,,,,,,,,,,,,,,59.99195573480738,59.5286626658152,65.95932360914888,65.95932360914888,64.93929112917604,64.10732132530903,2.1,2.12,-159,-289,0,-263,161,281,520.1799714565277,520.1800537109375,520.1835083961487,520.1946663856506,520.3446595668793,520.3446595668793,520.3446595668793,520.3446595668793,520.3446595668793,520.3446595668793,520.3446595668793,526.5101571083069,2,6.310497760772705,None,,,,,,,,,,,,,,,,,,5,2,2025-02-12_15h59.48.107,comp,2024.2.5,56.624154378063714,2025-02-12 16h05.46.068308 -0500,
92,92,0,filler_random,None,None,None,None,None,None,None,None,None,None,2,1.5351262092590332,None,,,,,0,0,0,0,0,92,92,165,526.5267674922943,,,,,,,,,,,,,,,,,,,,,,,,,,,,,,,,,,,,,,,,,,,,,,,,,,,,,,,,,,,,,,,,,,,,,,,,,,,,,,,,,86.38346903141743,126.60037433075964,117.60921775009461,139.64738878067,129.2114209613747,60.72413887624449,2.1,2.11,-229,266,0,255,196,-280,526.5118474960327,526.511926651001,526.5148391723633,526.5267674922943,526.6639354228973,526.6639354228973,526.6639354228973,526.6639354228973,526.6639354228973,526.6639354228973,526.6639354228973,528.0700197219849,2,1.5351262092590332,None,,,,,,,,,,,,,,,,,,5,2,2025-02-12_15h59.48.107,comp,2024.2.5,56.624154378063714,2025-02-12 16h05.46.068308 -0500,
93,93,0,filler_square,None,None,None,None,None,None,None,None,None,None,1,1.7412612438201904,None,,,,,0,0,0,0,0,93,93,172,528.0881097316742,,,,,,,,,,,,,,,,,,,,,,,,,,,,,,,,,,,,,,,,,,,,,,,,,,,,,,,,,,,,,,,,,,,,,,,,,,,,,,,,,193.06072852390065,193.06072852390065,115.60733762154716,175.57163620905857,86.56836851900744,83.4957124554779,2.1,2.11,-280,279,0,264,226,-290,528.0719048976898,528.0720341205597,528.0752522945404,528.0881097316742,528.2302823066711,528.2302823066711,528.2302823066711,528.2302823066711,528.2302823066711,528.2302823066711,528.2302823066711,529.8318326473236,1,1.7412612438201904,None,,,,,,,,,,,,,,,,,,5,2,2025-02-12_15h59.48.107,comp,2024.2.5,56.624154378063714,2025-02-12 16h05.46.068308 -0500,
94,94,0,critical,dwh,45.0,2.1,lower,65.0,65.0,57.0,133.0,133.0,57.0,3,2.7098965644836426,None,,,,,0,0,0,0,0,94,94,28,529.8482844829559,,,,,,,,,,,,,,,,,,,,,,,,,,,,,,,,,,,,,,,,,,,,,,,,,,,,,,,,,,,,,,,,,,,,,,,,,,,,,,,,,65.0,65.0,57.0,133.0,133.0,57.0,2.1,2.12,-195,-282,0,-275,191,265,529.8333919048309,529.8334722518921,529.8375449180603,529.8482844829559,529.9982507228851,529.9982507228851,529.9982507228851,529.9982507228851,529.9982507228851,529.9982507228851,529.9982507228851,532.5663859844208,3,2.7098965644836426,None,,,,,,,,,,,,,,,,,,5,2,2025-02-12_15h59.48.107,comp,2024.2.5,56.624154378063714,2025-02-12 16h05.46.068308 -0500,
95,95,0,critical,dwh,45.0,2.1,lower,65.0,65.0,57.0,133.0,133.0,57.0,3,2.0221283435821533,None,,,,,0,0,0,0,0,95,95,4,532.5847897529602,,,,,,,,,,,,,,,,,,,,,,,,,,,,,,,,,,,,,,,,,,,,,,,,,,,,,,,,,,,,,,,,,,,,,,,,,,,,,,,,,65.0,65.0,57.0,133.0,133.0,57.0,2.1,2.11,-195,270,0,255,191,-256,532.5681796073914,532.5683150291443,532.5712642669678,532.5847897529602,532.7306530475616,532.7306530475616,532.7306530475616,532.7306530475616,532.7306530475616,532.7306530475616,532.7306530475616,534.6126308441162,3,2.0221283435821533,None,,,,,,,,,,,,,,,,,,5,2,2025-02-12_15h59.48.107,comp,2024.2.5,56.624154378063714,2025-02-12 16h05.46.068308 -0500,
96,96,0,filler_random,None,None,None,None,None,None,None,None,None,None,1,1.903191328048706,None,,,,,0,0,0,0,0,96,96,156,534.6300604343414,,,,,,,,,,,,,,,,,,,,,,,,,,,,,,,,,,,,,,,,,,,,,,,,,,,,,,,,,,,,,,,,,,,,,,,,,,,,,,,,,124.54336396340855,100.47463710900651,68.96961357641126,188.00501723552807,127.29116565878321,87.76477431503787,2.1,2.12,-240,-275,0,-262,234,252,534.6143646240234,534.6144440174103,534.6173410415649,534.6300604343414,534.7711811065674,534.7711811065674,534.7711811065674,534.7711811065674,534.7711811065674,534.7711811065674,534.7711811065674,536.5520658493042,1,1.903191328048706,None,,,,,,,,,,,,,,,,,,5,2,2025-02-12_15h59.48.107,comp,2024.2.5,56.624154378063714,2025-02-12 16h05.46.068308 -0500,
97,97,0,filler_random,None,None,None,None,None,None,None,None,None,None,3,11.19593358039856,None,,,,,0,0,0,0,0,97,97,135,536.5693809986115,,,,,,,,,,,,,,,,,,,,,,,,,,,,,,,,,,,,,,,,,,,,,,,,,,,,,,,,,,,,,,,,,,,,,,,,,,,,,,,,,176.4276849351133,128.78121331734081,112.13383205458717,59.51869876791539,122.06029259955142,152.33316245717566,2.2,2.22,-190,257,0,-265,202,-279,536.5537621974945,536.5538437366486,536.5568308830261,536.5693809986115,536.7148063182831,536.7148063182831,536.7148063182831,536.7148063182831,536.7148063182831,536.7148063182831,536.7148063182831,547.7707884311676,3,11.19593358039856,None,,,,,,,,,,,,,,,,,,5,2,2025-02-12_15h59.48.107,comp,2024.2.5,56.624154378063714,2025-02-12 16h05.46.068308 -0500,
98,98,0,critical,dhw,60.0,1.0,lower,55.0,55.0,133.0,57.0,57.0,133.0,2,1.5781426429748535,None,,,,,0,0,0,0,0,98,98,54,547.7872405052185,,,,,,,,,,,,,,,,,,,,,,,,,,,,,,,,,,,,,,,,,,,,,,,,,,,,,,,,,,,,,,,,,,,,,,,,,,,,,,,,,55.0,55.0,133.0,57.0,57.0,133.0,1.0,1.1,-632,258,-480,272,-289,273,547.7723431587219,547.7724270820618,547.7757911682129,547.7872405052185,547.9367554187775,547.9367554187775,547.9367554187775,547.9367554187775,547.9367554187775,547.9367554187775,547.9367554187775,549.3694734573364,2,1.5781426429748535,None,,,,,,,,,,,,,,,,,,5,2,2025-02-12_15h59.48.107,comp,2024.2.5,56.624154378063714,2025-02-12 16h05.46.068308 -0500,
99,99,0,critical,hdw,45.0,2.1,lower,133.0,57.0,65.0,65.0,57.0,133.0,1,2.307500123977661,None,,,,,0,0,0,0,0,99,99,44,549.3855018615723,,,,,,,,,,,,,,,,,,,,,,,,,,,,,,,,,,,,,,,,,,,,,,,,,,,,,,,,,,,,,,,,,,,,,,,,,,,,,,,,,133.0,57.0,65.0,65.0,57.0,133.0,2.1,2.12,-157,-274,0,-287,195,252,549.3710296154022,549.3711080551147,549.3745913505554,549.3855018615723,549.5368461608887,549.5368461608887,549.5368461608887,549.5368461608887,549.5368461608887,549.5368461608887,549.5368461608887,551.6966507434845,1,2.307500123977661,None,,,,,,,,,,,,,,,,,,5,2,2025-02-12_15h59.48.107,comp,2024.2.5,56.624154378063714,2025-02-12 16h05.46.068308 -0500,
100,100,0,filler_square,None,None,None,None,None,None,None,None,None,None,2,0.8844187259674072,None,,,,,0,0,0,0,0,100,100,175,551.7131850719452,,,,,,,,,,,,,,,,,,,,,,,,,,,,,,,,,,,,,,,,,,,,,,,,,,,,,,,,,,,,,,,,,,,,,,,,,,,,,,,,,81.55903506740196,129.3837558384672,199.72126525158754,199.72126525158754,179.2380401318406,129.96641345799964,2.1,2.11,-261,254,0,290,261,-275,551.6987111568451,551.6987907886505,551.7019472122192,551.7131850719452,551.8546159267426,551.8546159267426,551.8546159267426,551.8546159267426,551.8546159267426,551.8546159267426,551.8546159267426,552.6052923202515,2,0.8844187259674072,None,,,,,,,,,,,,,,,,,,5,2,2025-02-12_15h59.48.107,comp,2024.2.5,56.624154378063714,2025-02-12 16h05.46.068308 -0500,
101,101,0,critical,wdh,60.0,4.0,lower,57.0,133.0,55.0,55.0,133.0,57.0,3,2.5353634357452393,None,,,,,0,0,0,0,0,101,101,82,552.6215705871582,,,,,,,,,,,,,,,,,,,,,,,,,,,,,,,,,,,,,,,,,,,,,,,,,,,,,,,,,,,,,,,,,,,,,,,,,,,,,,,,,57.0,133.0,55.0,55.0,133.0,57.0,4.0,4.2,-190,-19,0,-280,152,5,552.6068913936615,552.6070256233215,552.6109170913696,552.6215705871582,552.7727227210999,552.7727227210999,552.7727227210999,552.7727227210999,552.7727227210999,552.7727227210999,552.7727227210999,555.1715636253357,3,2.5353634357452393,None,,,,,,,,,,,,,,,,,,5,2,2025-02-12_15h59.48.107,comp,2024.2.5,56.624154378063714,2025-02-12 16h05.46.068308 -0500,
102,102,0,critical,hwd,60.0,2.1,lower,133.0,57.0,57.0,133.0,55.0,55.0,2,2.465888261795044,None,,,,,0,0,0,0,0,102,102,42,555.1868278980255,,,,,,,,,,,,,,,,,,,,,,,,,,,,,,,,,,,,,,,,,,,,,,,,,,,,,,,,,,,,,,,,,,,,,,,,,,,,,,,,,133.0,57.0,57.0,133.0,55.0,55.0,2.1,2.11,-191,258,0,266,190,-268,555.173109292984,555.1732137203217,555.17657995224,555.1868278980255,555.3371839523315,555.3371839523315,555.3371839523315,555.3371839523315,555.3371839523315,555.3371839523315,555.3371839523315,557.6552872657776,2,2.465888261795044,None,,,,,,,,,,,,,,,,,,5,2,2025-02-12_15h59.48.107,comp,2024.2.5,56.624154378063714,2025-02-12 16h05.46.068308 -0500,
103,103,0,filler_square,None,None,None,None,None,None,None,None,None,None,2,1.5325140953063965,None,,,,,0,0,0,0,0,103,103,193,557.6720843315125,,,,,,,,,,,,,,,,,,,,,,,,,,,,,,,,,,,,,,,,,,,,,,,,,,,,,,,,,,,,,,,,,,,,,,,,,,,,,,,,,90.22992227108035,82.07402148667322,91.82513155460668,73.88848934659615,146.25137873930151,146.25137873930151,2.2,2.21,-174,-286,0,258,206,271,557.6574590206146,557.6575400829315,557.6610701084137,557.6720843315125,557.8227114677429,557.8227114677429,557.8227114677429,557.8227114677429,557.8227114677429,557.8227114677429,557.8227114677429,559.2206344604492,2,1.5325140953063965,None,,,,,,,,,,,,,,,,,,5,2,2025-02-12_15h59.48.107,comp,2024.2.5,56.624154378063714,2025-02-12 16h05.46.068308 -0500,
104,104,0,filler_random,None,None,None,None,None,None,None,None,None,None,2,3.47235369682312,None,,,,,0,0,0,0,0,104,104,167,559.2364485263824,,,,,,,,,,,,,,,,,,,,,,,,,,,,,,,,,,,,,,,,,,,,,,,,,,,,,,,,,,,,,,,,,,,,,,,,,,,,,,,,,89.83132597884878,81.61466660468352,113.00932462688034,93.85948235583555,88.50697656855151,139.07691654422052,2.2,2.22,-184,276,0,-258,212,-282,559.2225592136383,559.2226819992065,559.225887298584,559.2364485263824,559.389454126358,559.389454126358,559.389454126358,559.389454126358,559.389454126358,559.389454126358,559.389454126358,562.725683927536,2,3.47235369682312,None,,,,,,,,,,,,,,,,,,5,2,2025-02-12_15h59.48.107,comp,2024.2.5,56.624154378063714,2025-02-12 16h05.46.068308 -0500,
105,105,0,filler_random,None,None,None,None,None,None,None,None,None,None,1,1.0739338397979736,None,,,,,0,0,0,0,0,105,105,169,562.740983247757,,,,,,,,,,,,,,,,,,,,,,,,,,,,,,,,,,,,,,,,,,,,,,,,,,,,,,,,,,,,,,,,,,,,,,,,,,,,,,,,,166.02435432495187,137.33191909489994,115.69949472660937,129.51871737068157,109.19217869480308,101.08893893832784,4.0,4.1,-229,-285,0,1,211,-273,562.7275202274323,562.7275977134705,562.730756521225,562.740983247757,562.8897242546082,562.8897242546082,562.8897242546082,562.8897242546082,562.8897242546082,562.8897242546082,562.8897242546082,563.826443195343,1,1.0739338397979736,None,,,,,,,,,,,,,,,,,,5,2,2025-02-12_15h59.48.107,comp,2024.2.5,56.624154378063714,2025-02-12 16h05.46.068308 -0500,
106,106,0,critical,dhw,45.0,2.1,lower,65.0,65.0,133.0,57.0,57.0,133.0,2,2.740244150161743,None,,,,,0,0,0,0,0,106,106,24,563.8641738891602,,,,,,,,,,,,,,,,,,,,,,,,,,,,,,,,,,,,,,,,,,,,,,,,,,,,,,,,,,,,,,,,,,,,,,,,,,,,,,,,,65.0,65.0,133.0,57.0,57.0,133.0,2.1,2.12,-157,-283,0,-255,191,267,563.8283956050873,563.8284823894501,563.8319373130798,563.8641738891602,563.9916300773621,563.9916300773621,563.9916300773621,563.9916300773621,563.9916300773621,563.9916300773621,563.9916300773621,566.6089560985565,2,2.740244150161743,None,,,,,,,,,,,,,,,,,,5,2,2025-02-12_15h59.48.107,comp,2024.2.5,56.624154378063714,2025-02-12 16h05.46.068308 -0500,
107,107,0,critical,hdw,45.0,3.0,upper,200.0,125.0,117.0,117.0,125.0,200.0,1,1.515613079071045,None,,,,,0,0,0,0,0,107,107,111,566.6251757144928,,,,,,,,,,,,,,,,,,,,,,,,,,,,,,,,,,,,,,,,,,,,,,,,,,,,,,,,,,,,,,,,,,,,,,,,,,,,,,,,,200.0,125.0,117.0,117.0,125.0,200.0,3.0,3.1,-217,255,0,9,254,-272,566.6106014251709,566.6107070446014,566.6142835617065,566.6251757144928,566.7732954025269,566.7732954025269,566.7732954025269,566.7732954025269,566.7732954025269,566.7732954025269,566.7732954025269,568.158361196518,1,1.515613079071045,None,,,,,,,,,,,,,,,,,,5,2,2025-02-12_15h59.48.107,comp,2024.2.5,56.624154378063714,2025-02-12 16h05.46.068308 -0500,
108,108,0,filler_random,None,None,None,None,None,None,None,None,None,None,2,2.59196138381958,None,,,,,0,0,0,0,0,108,108,161,568.1743018627167,,,,,,,,,,,,,,,,,,,,,,,,,,,,,,,,,,,,,,,,,,,,,,,,,,,,,,,,,,,,,,,,,,,,,,,,,,,,,,,,,74.4488567819858,96.91383892151464,148.16509541305206,185.64662143504077,179.86464915545537,122.9981983699391,2.2,2.22,-237,264,0,-281,250,-283,568.160306930542,568.1604099273682,568.1639564037323,568.1743018627167,568.3254525661469,568.3254525661469,568.3254525661469,568.3254525661469,568.3254525661469,568.3254525661469,568.3254525661469,570.7765057086945,2,2.59196138381958,None,,,,,,,,,,,,,,,,,,5,2,2025-02-12_15h59.48.107,comp,2024.2.5,56.624154378063714,2025-02-12 16h05.46.068308 -0500,
109,109,0,filler_square,None,None,None,None,None,None,None,None,None,None,3,1.1558599472045898,None,,,,,0,0,0,0,0,109,109,202,570.7932448387146,,,,,,,,,,,,,,,,,,,,,,,,,,,,,,,,,,,,,,,,,,,,,,,,,,,,,,,,,,,,,,,,,,,,,,,,,,,,,,,,,69.5531235256797,88.00943446931807,69.0419915820767,62.365596158036624,89.85535360703147,89.85535360703147,3.0,3.2,-171,-255,0,9,172,251,570.7786121368408,570.7786979675293,570.782392501831,570.7932448387146,570.9434659481049,570.9434659481049,570.9434659481049,570.9434659481049,570.9434659481049,570.9434659481049,570.9434659481049,571.9616405963898,3,1.1558599472045898,None,,,,,,,,,,,,,,,,,,5,2,2025-02-12_15h59.48.107,comp,2024.2.5,56.624154378063714,2025-02-12 16h05.46.068308 -0500,
110,110,0,critical,dwh,60.0,3.0,upper,100.0,100.0,125.0,200.0,200.0,125.0,3,1.4342460632324219,None,,,,,0,0,0,0,0,110,110,69,571.978236913681,,,,,,,,,,,,,,,,,,,,,,,,,,,,,,,,,,,,,,,,,,,,,,,,,,,,,,,,,,,,,,,,,,,,,,,,,,,,,,,,,100.0,100.0,125.0,200.0,200.0,125.0,3.0,3.2,-246,-283,0,-12,258,255,571.9635136127472,571.9636199474335,571.9675958156586,571.978236913681,572.1261105537415,572.1261105537415,572.1261105537415,572.1261105537415,572.1261105537415,572.1261105537415,572.1261105537415,573.429949760437,3,1.4342460632324219,None,,,,,,,,,,,,,,,,,,5,2,2025-02-12_15h59.48.107,comp,2024.2.5,56.624154378063714,2025-02-12 16h05.46.068308 -0500,
111,111,0,filler_random,None,None,None,None,None,None,None,None,None,None,2,2.747511625289917,None,,,,,0,0,0,0,0,111,111,138,573.4492349624634,,,,,,,,,,,,,,,,,,,,,,,,,,,,,,,,,,,,,,,,,,,,,,,,,,,,,,,,,,,,,,,,,,,,,,,,,,,,,,,,,182.18538265522432,100.79976556377449,176.64078773614682,168.75540336666512,68.34647848997845,167.8237093055215,3.0,3.2,-231,-255,0,3,264,286,573.4320075511932,573.432089805603,573.4354424476624,573.4492349624634,573.5942945480347,573.5942945480347,573.5942945480347,573.5942945480347,573.5942945480347,573.5942945480347,573.5942945480347,576.2147221565247,2,2.747511625289917,None,,,,,,,,,,,,,,,,,,5,2,2025-02-12_15h59.48.107,comp,2024.2.5,56.624154378063714,2025-02-12 16h05.46.068308 -0500,
112,112,0,critical,wdh,45.0,2.1,lower,57.0,133.0,65.0,65.0,133.0,57.0,3,7.341065168380737,None,,,,,0,0,0,0,0,112,112,8,576.2310645580292,,,,,,,,,,,,,,,,,,,,,,,,,,,,,,,,,,,,,,,,,,,,,,,,,,,,,,,,,,,,,,,,,,,,,,,,,,,,,,,,,57.0,133.0,65.0,65.0,133.0,57.0,2.1,2.11,-195,255,0,280,157,-276,576.2164204120636,576.2165529727936,576.2198286056519,576.2310645580292,576.3812503814697,576.3812503814697,576.3812503814697,576.3812503814697,576.3812503814697,576.3812503814697,576.3812503814697,583.5823850631714,3,7.341065168380737,None,,,,,,,,,,,,,,,,,,5,2,2025-02-12_15h59.48.107,comp,2024.2.5,56.624154378063714,2025-02-12 16h05.46.068308 -0500,
113,113,0,filler_random,None,None,None,None,None,None,None,None,None,None,1,5.268697023391724,None,,,,,0,0,0,0,0,113,113,164,583.5993041992188,,,,,,,,,,,,,,,,,,,,,,,,,,,,,,,,,,,,,,,,,,,,,,,,,,,,,,,,,,,,,,,,,,,,,,,,,,,,,,,,,95.63911562074988,151.28183405800615,57.46408733721017,114.73643778520193,109.22592298647656,66.25773350882504,4.0,4.1,-229,-263,0,-3,186,-267,583.5844423770905,583.5845263004303,583.5877847671509,583.5993041992188,583.7469756603241,583.7469756603241,583.7469756603241,583.7469756603241,583.7469756603241,583.7469756603241,583.7469756603241,588.8815715312958,1,5.268697023391724,None,,,,,,,,,,,,,,,,,,5,2,2025-02-12_15h59.48.107,comp,2024.2.5,56.624154378063714,2025-02-12 16h05.46.068308 -0500,
114,114,0,filler_random,None,None,None,None,None,None,None,None,None,None,2,1.6118593215942383,None,,,,,0,0,0,0,0,114,114,150,588.8960213661194,,,,,,,,,,,,,,,,,,,,,,,,,,,,,,,,,,,,,,,,,,,,,,,,,,,,,,,,,,,,,,,,,,,,,,,,,,,,,,,,,62.40842408511868,162.58070023067847,152.4225679627695,172.10828115430132,145.47215936123305,174.91347839849414,2.2,2.21,-263,-289,0,263,270,288,588.8833909034729,588.8834710121155,588.8866262435913,588.8960213661194,589.0468153953552,589.0468153953552,589.0468153953552,589.0468153953552,589.0468153953552,589.0468153953552,589.0468153953552,590.5213134288788,2,1.6118593215942383,None,,,,,,,,,,,,,,,,,,5,2,2025-02-12_15h59.48.107,comp,2024.2.5,56.624154378063714,2025-02-12 16h05.46.068308 -0500,
115,115,0,filler_square,None,None,None,None,None,None,None,None,None,None,3,1.2662079334259033,None,,,,,0,0,0,0,0,115,115,177,590.5375514030457,,,,,,,,,,,,,,,,,,,,,,,,,,,,,,,,,,,,,,,,,,,,,,,,,,,,,,,,,,,,,,,,,,,,,,,,,,,,,,,,,66.9178236651072,66.9178236651072,66.71280758724559,57.951138989442555,61.7029526091295,65.71673711812488,2.1,2.11,-158,273,0,268,158,-271,590.5231008529663,590.523227930069,590.5261037349701,590.5375514030457,590.6789469718933,590.6789469718933,590.6789469718933,590.6789469718933,590.6789469718933,590.6789469718933,590.6789469718933,591.8219690322876,3,1.2662079334259033,None,,,,,,,,,,,,,,,,,,5,2,2025-02-12_15h59.48.107,comp,2024.2.5,56.624154378063714,2025-02-12 16h05.46.068308 -0500,
116,116,0,critical,dhw,45.0,4.0,upper,117.0,117.0,200.0,125.0,125.0,200.0,2,3.45811128616333,None,,,,,0,0,0,0,0,116,116,53,591.8417234420776,,,,,,,,,,,,,,,,,,,,,,,,,,,,,,,,,,,,,,,,,,,,,,,,,,,,,,,,,,,,,,,,,,,,,,,,,,,,,,,,,117.0,117.0,200.0,125.0,125.0,200.0,4.0,4.2,-217,-10,0,-251,258,14,591.8234987258911,591.8235776424408,591.8264467716217,591.8417234420776,591.9816207885742,591.9816207885742,591.9816207885742,591.9816207885742,591.9816207885742,591.9816207885742,591.9816207885742,595.3169157505035,2,3.45811128616333,None,,,,,,,,,,,,,,,,,,5,2,2025-02-12_15h59.48.107,comp,2024.2.5,56.624154378063714,2025-02-12 16h05.46.068308 -0500,
117,117,0,filler_square,None,None,None,None,None,None,None,None,None,None,3,2.390913724899292,None,,,,,0,0,0,0,0,117,117,179,595.3333413600922,,,,,,,,,,,,,,,,,,,,,,,,,,,,,,,,,,,,,,,,,,,,,,,,,,,,,,,,,,,,,,,,,,,,,,,,,,,,,,,,,153.37307017646907,189.97917398996785,131.9247587457843,97.98926223782112,190.62775617429588,190.62775617429588,1.0,1.2,-240,-7,0,-3,240,-18,595.3187162876129,595.3187966346741,595.3219430446625,595.3333413600922,595.487389087677,595.487389087677,595.487389087677,595.487389087677,595.487389087677,595.487389087677,595.487389087677,597.7351961135864,3,2.390913724899292,None,,,,,,,,,,,,,,,,,,5,2,2025-02-12_15h59.48.107,comp,2024.2.5,56.624154378063714,2025-02-12 16h05.46.068308 -0500,
118,118,0,filler_square,None,None,None,None,None,None,None,None,None,None,3,2.909156322479248,None,,,,,0,0,0,0,0,118,118,205,597.750985622406,,,,,,,,,,,,,,,,,,,,,,,,,,,,,,,,,,,,,,,,,,,,,,,,,,,,,,,,,,,,,,,,,,,,,,,,,,,,,,,,,73.9412946981852,63.98492763449845,79.19393114231484,79.34660547644071,124.24892312967884,124.24892312967884,2.2,2.22,-168,261,0,-274,198,-287,597.7371971607208,597.7372817993164,597.7403378486633,597.750985622406,597.896320104599,597.896320104599,597.896320104599,597.896320104599,597.896320104599,597.896320104599,597.896320104599,600.6683616638184,3,2.909156322479248,None,,,,,,,,,,,,,,,,,,5,2,2025-02-12_15h59.48.107,comp,2024.2.5,56.624154378063714,2025-02-12 16h05.46.068308 -0500,
119,119,0,filler_square,None,None,None,None,None,None,None,None,None,None,1,1.485790729522705,None,,,,,0,0,0,0,0,119,119,189,600.6859564781189,,,,,,,,,,,,,,,,,,,,,,,,,,,,,,,,,,,,,,,,,,,,,,,,,,,,,,,,,,,,,,,,,,,,,,,,,,,,,,,,,181.93205602058663,181.93205602058663,67.32269424737248,105.2223492817069,132.17452217417483,148.33601475734918,4.0,4.1,-240,-269,0,16,223,-286,600.6703758239746,600.6704616546631,600.6745488643646,600.6859564781189,600.8348867893219,600.8348867893219,600.8348867893219,600.8348867893219,600.8348867893219,600.8348867893219,600.8348867893219,602.1855247020721,1,1.485790729522705,None,,,,,,,,,,,,,,,,,,5,2,2025-02-12_15h59.48.107,comp,2024.2.5,56.624154378063714,2025-02-12 16h05.46.068308 -0500,
120,120,0,filler_square,None,None,None,None,None,None,None,None,None,None,2,2.649848699569702,None,,,,,0,0,0,0,0,120,120,197,602.2017142772675,,,,,,,,,,,,,,,,,,,,,,,,,,,,,,,,,,,,,,,,,,,,,,,,,,,,,,,,,,,,,,,,,,,,,,,,,,,,,,,,,80.54558222069177,126.23359867170184,138.52340339842357,138.52340339842357,135.21986795271448,88.99199477154286,2.2,2.22,-228,281,0,-289,210,-272,602.1872668266296,602.187347650528,602.1914265155792,602.2017142772675,602.3519163131714,602.3519163131714,602.3519163131714,602.3519163131714,602.3519163131714,602.3519163131714,602.3519163131714,604.8683705329895,2,2.649848699569702,None,,,,,,,,,,,,,,,,,,5,2,2025-02-12_15h59.48.107,comp,2024.2.5,56.624154378063714,2025-02-12 16h05.46.068308 -0500,
121,121,0,filler_square,None,None,None,None,None,None,None,None,None,None,3,1.0400266647338867,None,,,,,0,0,0,0,0,121,121,183,604.884462594986,,,,,,,,,,,,,,,,,,,,,,,,,,,,,,,,,,,,,,,,,,,,,,,,,,,,,,,,,,,,,,,,,,,,,,,,,,,,,,,,,116.90360110521746,76.28250614296893,113.18837203604964,95.59612924548716,123.12997173526438,123.12997173526438,2.1,2.12,-182,-257,0,-253,205,256,604.870218038559,604.8702957630157,604.8732931613922,604.884462594986,605.0355935096741,605.0355935096741,605.0355935096741,605.0355935096741,605.0355935096741,605.0355935096741,605.0355935096741,605.935809135437,3,1.0400266647338867,None,,,,,,,,,,,,,,,,,,5,2,2025-02-12_15h59.48.107,comp,2024.2.5,56.624154378063714,2025-02-12 16h05.46.068308 -0500,
122,122,0,critical,hwd,45.0,3.0,lower,133.0,57.0,57.0,133.0,65.0,65.0,2,66.43283462524414,None,,,,,0,0,0,0,0,122,122,98,605.9543027877808,,,,,,,,,,,,,,,,,,,,,,,,,,,,,,,,,,,,,,,,,,,,,,,,,,,,,,,,,,,,,,,,,,,,,,,,,,,,,,,,,133.0,57.0,57.0,133.0,65.0,65.0,3.0,3.1,-191,275,0,2,195,-278,605.9373245239258,605.9374012947083,605.9407413005829,605.9543027877808,606.1025030612946,606.1025030612946,606.1025030612946,606.1025030612946,606.1025030612946,606.1025030612946,606.1025030612946,672.3907692432404,2,66.43283462524414,None,,,,,,,,,,,,,,,,,,5,2,2025-02-12_15h59.48.107,comp,2024.2.5,56.624154378063714,2025-02-12 16h05.46.068308 -0500,
123,123,0,critical,wdh,60.0,2.1,upper,125.0,200.0,100.0,100.0,200.0,125.0,3,1.6419949531555176,None,,,,,0,0,0,0,0,123,123,11,672.4088091850281,,,,,,,,,,,,,,,,,,,,,,,,,,,,,,,,,,,,,,,,,,,,,,,,,,,,,,,,,,,,,,,,,,,,,,,,,,,,,,,,,125.0,200.0,100.0,100.0,200.0,125.0,2.1,2.11,-246,286,0,264,208,-289,672.3924262523651,672.3925096988678,672.3967561721802,672.4088091850281,672.5600810050964,672.5600810050964,672.5600810050964,672.5600810050964,672.5600810050964,672.5600810050964,672.5600810050964,674.0556626319885,3,1.6419949531555176,None,,,,,,,,,,,,,,,,,,5,2,2025-02-12_15h59.48.107,comp,2024.2.5,56.624154378063714,2025-02-12 16h05.46.068308 -0500,
124,124,0,filler_square,None,None,None,None,None,None,None,None,None,None,1,1.1858952045440674,None,,,,,0,0,0,0,0,124,124,196,674.0712332725525,,,,,,,,,,,,,,,,,,,,,,,,,,,,,,,,,,,,,,,,,,,,,,,,,,,,,,,,,,,,,,,,,,,,,,,,,,,,,,,,,145.415119212168,145.415119212168,134.90143884469927,90.62425133406045,99.1963420277596,103.20509577734731,2.1,2.11,-214,276,0,271,193,-259,674.057520866394,674.0576004981995,674.0611207485199,674.0712332725525,674.2233493328094,674.2233493328094,674.2233493328094,674.2233493328094,674.2233493328094,674.2233493328094,674.2233493328094,675.2713005542755,1,1.1858952045440674,None,,,,,,,,,,,,,,,,,,5,2,2025-02-12_15h59.48.107,comp,2024.2.5,56.624154378063714,2025-02-12 16h05.46.068308 -0500,
125,125,0,critical,dhw,45.0,2.1,lower,65.0,65.0,133.0,57.0,57.0,133.0,2,1.3547370433807373,None,,,,,0,0,0,0,0,125,125,0,675.2871625423431,,,,,,,,,,,,,,,,,,,,,,,,,,,,,,,,,,,,,,,,,,,,,,,,,,,,,,,,,,,,,,,,,,,,,,,,,,,,,,,,,65.0,65.0,133.0,57.0,57.0,133.0,2.1,2.11,-157,266,0,260,191,-288,675.2717535495758,675.2717750072479,675.272561788559,675.2871625423431,675.4377355575562,675.4377355575562,675.4377355575562,675.4377355575562,675.4377355575562,675.4377355575562,675.4377355575562,676.6575138568878,2,1.3547370433807373,None,,,,,,,,,,,,,,,,,,5,2,2025-02-12_15h59.48.107,comp,2024.2.5,56.624154378063714,2025-02-12 16h05.46.068308 -0500,
126,126,0,filler_square,None,None,None,None,None,None,None,None,None,None,2,1.744924545288086,None,,,,,0,0,0,0,0,126,126,204,676.6735997200012,,,,,,,,,,,,,,,,,,,,,,,,,,,,,,,,,,,,,,,,,,,,,,,,,,,,,,,,,,,,,,,,,,,,,,,,,,,,,,,,,64.86852242645571,58.32866445557841,73.62486856795255,73.62486856795255,57.739782315956596,62.797680269672014,1.0,1.3,318,-286,480,-275,644,-279,676.6594822406769,676.6596128940582,676.6628842353821,676.6735997200012,676.8106791973114,676.8106791973114,676.8106791973114,676.8106791973114,676.8106791973114,676.8106791973114,676.8106791973114,678.4232840538025,2,1.744924545288086,None,,,,,,,,,,,,,,,,,,5,2,2025-02-12_15h59.48.107,comp,2024.2.5,56.624154378063714,2025-02-12 16h05.46.068308 -0500,
127,127,0,critical,whd,60.0,3.0,lower,57.0,133.0,133.0,57.0,55.0,55.0,2,2.2423465251922607,None,,,,,0,0,0,0,0,127,127,92,678.4398379325867,,,,,,,,,,,,,,,,,,,,,,,,,,,,,,,,,,,,,,,,,,,,,,,,,,,,,,,,,,,,,,,,,,,,,,,,,,,,,,,,,57.0,133.0,133.0,57.0,55.0,55.0,3.0,3.2,-191,-288,0,1,152,264,678.4249901771545,678.4250946044922,678.4285860061646,678.4398379325867,678.5880136489868,678.5880136489868,678.5880136489868,678.5880136489868,678.5880136489868,678.5880136489868,678.5880136489868,680.6911747455597,2,2.2423465251922607,None,,,,,,,,,,,,,,,,,,5,2,2025-02-12_15h59.48.107,comp,2024.2.5,56.624154378063714,2025-02-12 16h05.46.068308 -0500,
128,128,0,filler_random,None,None,None,None,None,None,None,None,None,None,3,1.733710765838623,None,,,,,0,0,0,0,0,128,128,144,680.7080178260803,,,,,,,,,,,,,,,,,,,,,,,,,,,,,,,,,,,,,,,,,,,,,,,,,,,,,,,,,,,,,,,,,,,,,,,,,,,,,,,,,137.26897265476592,115.89620542247314,59.28381606906656,161.35695553442017,99.52376259270463,191.90246944177844,3.0,3.1,-235,274,0,-14,273,-272,680.6929864883423,680.6930935382843,680.6963458061218,680.7080178260803,680.8572797775269,680.8572797775269,680.8572797775269,680.8572797775269,680.8572797775269,680.8572797775269,680.8572797775269,682.4473376274109,3,1.733710765838623,None,,,,,,,,,,,,,,,,,,5,2,2025-02-12_15h59.48.107,comp,2024.2.5,56.624154378063714,2025-02-12 16h05.46.068308 -0500,
129,129,0,critical,hdw,45.0,1.0,lower,133.0,57.0,65.0,65.0,57.0,133.0,3,3.5370590686798096,None,,,,,0,0,0,0,0,129,129,108,682.465567111969,,,,,,,,,,,,,,,,,,,,,,,,,,,,,,,,,,,,,,,,,,,,,,,,,,,,,,,,,,,,,,,,,,,,,,,,,,,,,,,,,133.0,57.0,65.0,65.0,57.0,133.0,1.0,1.1,-637,273,-480,278,-285,267,682.4489517211914,682.4490311145782,682.452409029007,682.465567111969,682.6076686382294,682.6076686382294,682.6076686382294,682.6076686382294,682.6076686382294,682.6076686382294,682.6076686382294,686.0079491138458,3,3.5370590686798096,None,,,,,,,,,,,,,,,,,,5,2,2025-02-12_15h59.48.107,comp,2024.2.5,56.624154378063714,2025-02-12 16h05.46.068308 -0500,
130,130,0,filler_square,None,None,None,None,None,None,None,None,None,None,2,0.9811277389526367,None,,,,,0,0,0,0,0,130,130,190,686.0282337665558,,,,,,,,,,,,,,,,,,,,,,,,,,,,,,,,,,,,,,,,,,,,,,,,,,,,,,,,,,,,,,,,,,,,,,,,,,,,,,,,,102.52981052543186,141.2262027785727,168.52623529743636,168.52623529743636,59.72937379711818,109.38062027620019,3.0,3.2,-251,-264,0,8,235,266,686.0097749233246,686.0098538398743,686.012992143631,686.0282337665558,686.1756711006165,686.1756711006165,686.1756711006165,686.1756711006165,686.1756711006165,686.1756711006165,686.1756711006165,687.0210914611816,2,0.9811277389526367,None,,,,,,,,,,,,,,,,,,5,2,2025-02-12_15h59.48.107,comp,2024.2.5,56.624154378063714,2025-02-12 16h05.46.068308 -0500,
131,131,0,filler_square,None,None,None,None,None,None,None,None,None,None,2,1.8214635848999023,None,,,,,0,0,0,0,0,131,131,195,687.0367014408112,,,,,,,,,,,,,,,,,,,,,,,,,,,,,,,,,,,,,,,,,,,,,,,,,,,,,,,,,,,,,,,,,,,,,,,,,,,,,,,,,63.51042664749075,79.38852390097965,89.26551101661119,89.26551101661119,72.75020392614772,68.85496173328154,4.0,4.1,-180,-254,0,-19,175,-281,687.0229709148407,687.0230515003204,687.0259163379669,687.0367014408112,687.1903078556061,687.1903078556061,687.1903078556061,687.1903078556061,687.1903078556061,687.1903078556061,687.1903078556061,688.8652658462524,2,1.8214635848999023,None,,,,,,,,,,,,,,,,,,5,2,2025-02-12_15h59.48.107,comp,2024.2.5,56.624154378063714,2025-02-12 16h05.46.068308 -0500,
132,132,0,critical,dwh,60.0,4.0,upper,100.0,100.0,125.0,200.0,200.0,125.0,2,2.0911777019500732,None,,,,,0,0,0,0,0,132,132,71,688.8862159252167,,,,,,,,,,,,,,,,,,,,,,,,,,,,,,,,,,,,,,,,,,,,,,,,,,,,,,,,,,,,,,,,,,,,,,,,,,,,,,,,,100.0,100.0,125.0,200.0,200.0,125.0,4.0,4.2,-246,-3,0,-267,258,-1,688.8669786453247,688.8671145439148,688.8703982830048,688.8862159252167,689.0257465839386,689.0257465839386,689.0257465839386,689.0257465839386,689.0257465839386,689.0257465839386,689.0257465839386,690.9938056468964,2,2.0911777019500732,None,,,,,,,,,,,,,,,,,,5,2,2025-02-12_15h59.48.107,comp,2024.2.5,56.624154378063714,2025-02-12 16h05.46.068308 -0500,
133,133,0,critical,whd,60.0,1.0,upper,125.0,200.0,200.0,125.0,100.0,100.0,1,2.5353124141693115,None,,,,,0,0,0,0,0,133,133,91,691.0098161697388,,,,,,,,,,,,,,,,,,,,,,,,,,,,,,,,,,,,,,,,,,,,,,,,,,,,,,,,,,,,,,,,,,,,,,,,,,,,,,,,,125.0,200.0,200.0,125.0,100.0,100.0,1.0,1.3,222,-284,480,-262,688,-271,690.9953706264496,690.9954476356506,690.9995384216309,691.0098161697388,691.1613788604736,691.1613788604736,691.1613788604736,691.1613788604736,691.1613788604736,691.1613788604736,691.1613788604736,693.5610508918762,1,2.5353124141693115,None,,,,,,,,,,,,,,,,,,5,2,2025-02-12_15h59.48.107,comp,2024.2.5,56.624154378063714,2025-02-12 16h05.46.068308 -0500,
134,134,0,critical,whd,45.0,3.0,upper,125.0,200.0,200.0,125.0,117.0,117.0,2,1.5283870697021484,None,,,,,0,0,0,0,0,134,134,87,693.5772342681885,,,,,,,,,,,,,,,,,,,,,,,,,,,,,,,,,,,,,,,,,,,,,,,,,,,,,,,,,,,,,,,,,,,,,,,,,,,,,,,,,125.0,200.0,200.0,125.0,117.0,117.0,3.0,3.1,-258,271,0,-14,217,-282,693.5626621246338,693.5627501010895,693.5669858455658,693.5772342681885,693.7316601276398,693.7316601276398,693.7316601276398,693.7316601276398,693.7316601276398,693.7316601276398,693.7316601276398,695.1121873855591,2,1.5283870697021484,None,,,,,,,,,,,,,,,,,,5,2,2025-02-12_15h59.48.107,comp,2024.2.5,56.624154378063714,2025-02-12 16h05.46.068308 -0500,
135,135,0,critical,hdw,60.0,4.0,lower,133.0,57.0,55.0,55.0,57.0,133.0,3,2.3458166122436523,None,,,,,0,0,0,0,0,135,135,118,695.1278388500214,,,,,,,,,,,,,,,,,,,,,,,,,,,,,,,,,,,,,,,,,,,,,,,,,,,,,,,,,,,,,,,,,,,,,,,,,,,,,,,,,133.0,57.0,55.0,55.0,57.0,133.0,4.0,4.1,-152,-254,0,-16,190,-287,695.1137163639069,695.1137945652008,695.1172385215759,695.1278388500214,695.27565741539,695.27565741539,695.27565741539,695.27565741539,695.27565741539,695.27565741539,695.27565741539,697.4777336120605,3,2.3458166122436523,None,,,,,,,,,,,,,,,,,,5,2,2025-02-12_15h59.48.107,comp,2024.2.5,56.624154378063714,2025-02-12 16h05.46.068308 -0500,
136,136,0,critical,hwd,60.0,1.0,lower,133.0,57.0,57.0,133.0,55.0,55.0,2,6.090783596038818,None,,,,,0,0,0,0,0,136,136,102,697.4941267967224,,,,,,,,,,,,,,,,,,,,,,,,,,,,,,,,,,,,,,,,,,,,,,,,,,,,,,,,,,,,,,,,,,,,,,,,,,,,,,,,,133.0,57.0,57.0,133.0,55.0,55.0,1.0,1.3,289,-269,480,-250,670,-262,697.4793918132782,697.4794721603394,697.4825451374054,697.4941267967224,697.6542391777039,697.6542391777039,697.6542391777039,697.6542391777039,697.6542391777039,697.6542391777039,697.6542391777039,703.597864151001,2,6.090783596038818,None,,,,,,,,,,,,,,,,,,5,2,2025-02-12_15h59.48.107,comp,2024.2.5,56.624154378063714,2025-02-12 16h05.46.068308 -0500,
137,137,0,filler_square,None,None,None,None,None,None,None,None,None,None,2,1.5313093662261963,None,,,,,0,0,0,0,0,137,137,206,703.613550901413,,,,,,,,,,,,,,,,,,,,,,,,,,,,,,,,,,,,,,,,,,,,,,,,,,,,,,,,,,,,,,,,,,,,,,,,,,,,,,,,,154.45319281248214,79.79464947730995,163.04263295537336,163.04263295537336,131.2737149796361,133.42708188611832,2.1,2.12,-217,-275,0,-274,244,274,703.5997424125671,703.599821805954,703.6029686927795,703.613550901413,703.7625901699066,703.7625901699066,703.7625901699066,703.7625901699066,703.7625901699066,703.7625901699066,703.7625901699066,705.1577763557434,2,1.5313093662261963,None,,,,,,,,,,,,,,,,,,5,2,2025-02-12_15h59.48.107,comp,2024.2.5,56.624154378063714,2025-02-12 16h05.46.068308 -0500,
138,138,0,critical,dwh,45.0,4.0,upper,117.0,117.0,125.0,200.0,200.0,125.0,2,2.852341651916504,None,,,,,0,0,0,0,0,138,138,65,705.173469543457,,,,,,,,,,,,,,,,,,,,,,,,,,,,,,,,,,,,,,,,,,,,,,,,,,,,,,,,,,,,,,,,,,,,,,,,,,,,,,,,,117.0,117.0,125.0,200.0,200.0,125.0,4.0,4.1,-254,-258,0,-6,258,-264,705.1594095230103,705.1595151424408,705.1628379821777,705.173469543457,705.3141279220581,705.3141279220581,705.3141279220581,705.3141279220581,705.3141279220581,705.3141279220581,705.3141279220581,708.0302083492279,2,2.852341651916504,None,,,,,,,,,,,,,,,,,,5,2,2025-02-12_15h59.48.107,comp,2024.2.5,56.624154378063714,2025-02-12 16h05.46.068308 -0500,
139,139,0,critical,dwh,60.0,1.0,upper,100.0,100.0,125.0,200.0,200.0,125.0,3,1.2821519374847412,None,,,,,0,0,0,0,0,139,139,67,708.0467367172241,,,,,,,,,,,,,,,,,,,,,,,,,,,,,,,,,,,,,,,,,,,,,,,,,,,,,,,,,,,,,,,,,,,,,,,,,,,,,,,,,100.0,100.0,125.0,200.0,200.0,125.0,1.0,1.2,-246,0,0,18,258,19,708.0318672657013,708.0319459438324,708.0353999137878,708.0467367172241,708.2003085613251,708.2003085613251,708.2003085613251,708.2003085613251,708.2003085613251,708.2003085613251,708.2003085613251,709.3336937427521,3,1.2821519374847412,None,,,,,,,,,,,,,,,,,,5,2,2025-02-12_15h59.48.107,comp,2024.2.5,56.624154378063714,2025-02-12 16h05.46.068308 -0500,
140,140,0,critical,whd,60.0,4.0,upper,125.0,200.0,200.0,125.0,100.0,100.0,1,2.1561567783355713,None,,,,,0,0,0,0,0,140,140,95,709.3495903015137,,,,,,,,,,,,,,,,,,,,,,,,,,,,,,,,,,,,,,,,,,,,,,,,,,,,,,,,,,,,,,,,,,,,,,,,,,,,,,,,,125.0,200.0,200.0,125.0,100.0,100.0,4.0,4.1,-258,-272,0,-7,208,-259,709.3351767063141,709.3352563381195,709.3383967876434,709.3495903015137,709.5053765773773,709.5053765773773,709.5053765773773,709.5053765773773,709.5053765773773,709.5053765773773,709.5053765773773,711.5195529460907,1,2.1561567783355713,None,,,,,,,,,,,,,,,,,,5,2,2025-02-12_15h59.48.107,comp,2024.2.5,56.624154378063714,2025-02-12 16h05.46.068308 -0500,
