thisN,thisTrialN,thisRepN,effect,order,distance,config,diag,h_1,w_1,h_2,w_2,h_3,w_3,rect_choice.keys,rect_choice.rt,rect_choice.duration,instructions_loop.thisRepN,instructions_loop.thisTrialN,instructions_loop.thisN,instructions_loop.thisIndex,blocks.thisRepN,blocks.thisTrialN,blocks.thisN,blocks.thisIndex,trials.thisRepN,trials.thisTrialN,trials.thisN,trials.thisIndex,thisRow.t,notes,consent.started,agree_button.started,decline_button.started,consent_img.started,mouse.started,consent.stopped,agree_button.numClicks,agree_button.timesOn,agree_button.timesOff,decline_button.numClicks,decline_button.timesOn,decline_button.timesOff,mouse.x,mouse.y,mouse.leftButton,mouse.midButton,mouse.rightButton,mouse.time,mouse.clicked_name,exp_params.started,exp_params.stopped,welcome.started,welcome_text.started,welcome.stopped,instructions_1.started,instructions_1_text_1.started,instructions_1_text_2.started,key_resp.started,instructions_1.stopped,instructions_loop.key_resp.keys,instructions_loop.key_resp.rt,instructions_loop.key_resp.duration,instructions_2.started,instructions_2_text_1.started,instructions_2_text_2.started,key_resp_2.started,instructions_2.stopped,instructions_loop.key_resp_2.keys,instructions_loop.key_resp_2.rt,instructions_loop.key_resp_2.duration,instructions_3.started,instructions_3_text_1.started,r1_instr3.started,r2_instr3.started,r3_instr3.started,r1_instr3_label.started,r2_instr3_label.started,r3_instr3_label.started,instructions_3_text_3.started,instructions_3_text_4.started,key_resp_3.started,instructions_3.stopped,instructions_loop.key_resp_3.keys,instructions_loop.key_resp_3.rt,instructions_loop.key_resp_3.duration,instructions_4.started,instructions_4_text_1.started,instructions_4_text_3.started,instructions_4_text_2.started,key_resp_4.started,instructions_4.stopped,instructions_loop.key_resp_4.keys,instructions_loop.key_resp_4.rt,instructions_loop.key_resp_4.duration,instructions_5.started,instructions_5_text_1.started,instructions_5_text_2.started,key_resp_5.started,instructions_5.stopped,instructions_loop.key_resp_5.keys,instructions_loop.key_resp_5.rt,instructions_loop.key_resp_5.duration,start_exp.started,start_exp_text.started,key_resp_6.started,start_exp.stopped,key_resp_6.keys,key_resp_6.rt,key_resp_6.duration,h_1_tmp,w_1_tmp,h_2_tmp,w_2_tmp,h_3_tmp,w_3_tmp,config_tmp,config_tmp_1,r_1_x,r_1_y,r_2_x,r_2_y,r_3_x,r_3_y,pre_trial.started,pre_trial.stopped,choice_trial.started,rect_choice.started,r_1.started,r_2.started,r_3.started,r_1_label.started,r_2_label.started,r_3_label.started,prompt.started,choice_trial.stopped,trials.rect_choice.keys,trials.rect_choice.rt,trials.rect_choice.duration,end_block.started,end_block_text.started,end_block.stopped,end.started,end_text.started,key_resp_7.started,end.stopped,key_resp_7.keys,key_resp_7.rt,key_resp_7.duration,debriefing.started,debrief_form.started,end_debrief.started,debriefing.stopped,end_debrief.keys,end_debrief.rt,end_debrief.duration,participant,computer,date,expName,psychopyVersion,frameRate,expStart,
,,,,,,,,,,,,,,,,,,,,,,,,,,,,,,,0.014869451522827148,0.03177380561828613,0.03177380561828613,0.03177380561828613,0.014680147171020508,22.001644372940063,1,[21.967348098754883],[21.967371225357056],0,,,[-62.0],[-524.0],[1],[0],[0],[21.986324787139893],['agree_button'],,,,,,,,,,,,,,,,,,,,,,,,,,,,,,,,,,,,,,,,,,,,,,,,,,,,,,,,,,,,,,,,,,,,,,,,,,,,,,,,,,,,,,,,,,,,,,,,,,,,,,,,,,,6,2,2025-02-13_11h54.26.891,comp,2024.2.5,57.093790921737906,2025-02-13 11h57.46.027236 -0500,
,,,,,,,,,,,,,,,,,,,,,,,,,,,,,,,,,,,,,,,,,,,,,,,,,,22.00214385986328,22.002228021621704,,,,,,,,,,,,,,,,,,,,,,,,,,,,,,,,,,,,,,,,,,,,,,,,,,,,,,,,,,,,,,,,,,,,,,,,,,,,,,,,,,,,,,,,,,,,,,,,,,,,,,,,,6,2,2025-02-13_11h54.26.891,comp,2024.2.5,57.093790921737906,2025-02-13 11h57.46.027236 -0500,
,,,,,,,,,,,,,,,,,,,,,,,,,,,,,,,,,,,,,,,,,,,,,,,,,,,,22.00226926803589,22.0201678276062,24.017027139663696,,,,,,,,,,,,,,,,,,,,,,,,,,,,,,,,,,,,,,,,,,,,,,,,,,,,,,,,,,,,,,,,,,,,,,,,,,,,,,,,,,,,,,,,,,,,,,,,,,,,,,6,2,2025-02-13_11h54.26.891,comp,2024.2.5,57.093790921737906,2025-02-13 11h57.46.027236 -0500,
0,0,0,,,,,,,,,,,,,,,0,0,0,0,,,,,,,,,24.034507274627686,,,,,,,,,,,,,,,,,,,,,,,,,,24.01790189743042,24.034507274627686,24.034507274627686,25.51980471611023,27.902604818344116,space,2.3667421340942383,None,27.902771949768066,27.921234607696533,27.921234607696533,29.418663501739502,36.32192015647888,space,6.892884969711304,None,36.32207179069519,36.350470781326294,36.350470781326294,36.350470781326294,36.350470781326294,36.350470781326294,36.350470781326294,36.350470781326294,36.350470781326294,36.350470781326294,37.82227396965027,46.71534252166748,space,8.879719734191895,None,46.71550512313843,46.73649883270264,46.73649883270264,46.73649883270264,48.2245876789093,58.678221225738525,space,10.44572377204895,None,58.67838001251221,58.69342756271362,58.69342756271362,60.1773624420166,60.76192283630371,space,0.5805413722991943,None,60.7621169090271,60.777448892593384,60.777448892593384,63.89527773857117,space,3.1000983715057373,None,,,,,,,,,,,,,,,,,,,,,,,,,,,,,,,,,,,,,,,,,,,,,,,6,2,2025-02-13_11h54.26.891,comp,2024.2.5,57.093790921737906,2025-02-13 11h57.46.027236 -0500,
0,0,0,critical,dhw,60.0,1.0,upper,100.0,100.0,200.0,125.0,125.0,200.0,3,5.3293235301971436,None,,,,,0,0,0,0,0,0,0,55,63.97224974632263,,,,,,,,,,,,,,,,,,,,,,,,,,,,,,,,,,,,,,,,,,,,,,,,,,,,,,,,,,,,,,,,,,,,,,,,,,,,,,,,,100.0,100.0,200.0,125.0,125.0,200.0,1.0,1.2,-208,14,0,18,258,7,63.95567178726196,63.955721616744995,63.95764636993408,63.97224974632263,64.12613439559937,64.12613439559937,64.12613439559937,64.12613439559937,64.12613439559937,64.12613439559937,64.12613439559937,69.31437516212463,3,5.3293235301971436,None,,,,,,,,,,,,,,,,,,6,2,2025-02-13_11h54.26.891,comp,2024.2.5,57.093790921737906,2025-02-13 11h57.46.027236 -0500,
1,1,0,critical,whd,45.0,4.0,lower,57.0,133.0,133.0,57.0,65.0,65.0,1,3.1230075359344482,None,,,,,0,0,0,0,0,1,1,88,69.33063268661499,,,,,,,,,,,,,,,,,,,,,,,,,,,,,,,,,,,,,,,,,,,,,,,,,,,,,,,,,,,,,,,,,,,,,,,,,,,,,,,,,57.0,133.0,133.0,57.0,65.0,65.0,4.0,4.1,-191,-267,0,-11,157,-278,69.31593322753906,69.31601214408875,69.3193588256836,69.33063268661499,69.48448324203491,69.48448324203491,69.48448324203491,69.48448324203491,69.48448324203491,69.48448324203491,69.48448324203491,72.46654033660889,1,3.1230075359344482,None,,,,,,,,,,,,,,,,,,6,2,2025-02-13_11h54.26.891,comp,2024.2.5,57.093790921737906,2025-02-13 11h57.46.027236 -0500,
2,2,0,critical,hwd,60.0,3.0,upper,200.0,125.0,125.0,200.0,100.0,100.0,2,2.7238545417785645,None,,,,,0,0,0,0,0,2,2,105,72.4825508594513,,,,,,,,,,,,,,,,,,,,,,,,,,,,,,,,,,,,,,,,,,,,,,,,,,,,,,,,,,,,,,,,,,,,,,,,,,,,,,,,,200.0,125.0,125.0,200.0,100.0,100.0,3.0,3.1,-258,257,0,8,246,-258,72.46833300590515,72.46847176551819,72.47215294837952,72.4825508594513,72.63154006004333,72.63154006004333,72.63154006004333,72.63154006004333,72.63154006004333,72.63154006004333,72.63154006004333,75.21667098999023,2,2.7238545417785645,None,,,,,,,,,,,,,,,,,,6,2,2025-02-13_11h54.26.891,comp,2024.2.5,57.093790921737906,2025-02-13 11h57.46.027236 -0500,
3,3,0,filler_square,None,None,None,None,None,None,None,None,None,None,1,4.035478115081787,None,,,,,0,0,0,0,0,3,3,182,75.23371267318726,,,,,,,,,,,,,,,,,,,,,,,,,,,,,,,,,,,,,,,,,,,,,,,,,,,,,,,,,,,,,,,,,,,,,,,,,,,,,,,,,150.61698552190563,150.61698552190563,58.174521817708694,77.58298802806398,86.26963715519099,97.93580011861417,2.1,2.12,-210,-251,0,-274,184,266,75.21863174438477,75.2187135219574,75.22276878356934,75.23371267318726,75.3804223537445,75.3804223537445,75.3804223537445,75.3804223537445,75.3804223537445,75.3804223537445,75.3804223537445,79.28395414352417,1,4.035478115081787,None,,,,,,,,,,,,,,,,,,6,2,2025-02-13_11h54.26.891,comp,2024.2.5,57.093790921737906,2025-02-13 11h57.46.027236 -0500,
4,4,0,critical,wdh,45.0,2.1,upper,125.0,200.0,117.0,117.0,200.0,125.0,1,2.5299062728881836,None,,,,,0,0,0,0,0,4,4,33,79.2999382019043,,,,,,,,,,,,,,,,,,,,,,,,,,,,,,,,,,,,,,,,,,,,,,,,,,,,,,,,,,,,,,,,,,,,,,,,,,,,,,,,,125.0,200.0,117.0,117.0,200.0,125.0,2.1,2.12,-254,-285,0,-289,217,258,79.28569602966309,79.2858304977417,79.28941130638123,79.2999382019043,79.43856596946716,79.43856596946716,79.43856596946716,79.43856596946716,79.43856596946716,79.43856596946716,79.43856596946716,81.8352997303009,1,2.5299062728881836,None,,,,,,,,,,,,,,,,,,6,2,2025-02-13_11h54.26.891,comp,2024.2.5,57.093790921737906,2025-02-13 11h57.46.027236 -0500,
5,5,0,critical,dhw,60.0,4.0,lower,55.0,55.0,133.0,57.0,57.0,133.0,3,3.7296648025512695,None,,,,,0,0,0,0,0,5,5,58,81.85207962989807,,,,,,,,,,,,,,,,,,,,,,,,,,,,,,,,,,,,,,,,,,,,,,,,,,,,,,,,,,,,,,,,,,,,,,,,,,,,,,,,,55.0,55.0,133.0,57.0,57.0,133.0,4.0,4.2,-152,-9,0,-287,191,14,81.83685278892517,81.83693337440491,81.84114623069763,81.85207962989807,81.99880790710449,81.99880790710449,81.99880790710449,81.99880790710449,81.99880790710449,81.99880790710449,81.99880790710449,85.58796215057373,3,3.7296648025512695,None,,,,,,,,,,,,,,,,,,6,2,2025-02-13_11h54.26.891,comp,2024.2.5,57.093790921737906,2025-02-13 11h57.46.027236 -0500,
6,6,0,catch,None,None,None,None,None,None,None,None,None,None,3,3.8325390815734863,None,,,,,0,0,0,0,0,6,6,120,85.60439848899841,,,,,,,,,,,,,,,,,,,,,,,,,,,,,,,,,,,,,,,,,,,,,,,,,,,,,,,,,,,,,,,,,,,,,,,,,,,,,,,,,64,126,109,81,167,158,2.1,2.11,-200,274,0,285,216,-290,85.59004878997803,85.59013032913208,85.59360647201538,85.60439848899841,85.75268578529358,85.75268578529358,85.75268578529358,85.75268578529358,85.75268578529358,85.75268578529358,85.75268578529358,89.45546674728394,3,3.8325390815734863,None,,,,,,,,,,,,,,,,,,6,2,2025-02-13_11h54.26.891,comp,2024.2.5,57.093790921737906,2025-02-13 11h57.46.027236 -0500,
7,7,0,filler_square,None,None,None,None,None,None,None,None,None,None,2,3.557396650314331,None,,,,,0,0,0,0,0,7,7,189,89.47453379631042,,,,,,,,,,,,,,,,,,,,,,,,,,,,,,,,,,,,,,,,,,,,,,,,,,,,,,,,,,,,,,,,,,,,,,,,,,,,,,,,,64.88289338998842,60.78071612357181,68.38600792846267,68.38600792846267,68.24736241501918,62.51862002431914,2.1,2.12,-161,-273,0,-280,161,272,89.45774388313293,89.4578218460083,89.4620463848114,89.47453379631042,89.61901664733887,89.61901664733887,89.61901664733887,89.61901664733887,89.61901664733887,89.61901664733887,89.61901664733887,93.03635263442993,2,3.557396650314331,None,,,,,,,,,,,,,,,,,,6,2,2025-02-13_11h54.26.891,comp,2024.2.5,57.093790921737906,2025-02-13 11h57.46.027236 -0500,
8,8,0,filler_random,None,None,None,None,None,None,None,None,None,None,3,2.800335645675659,None,,,,,0,0,0,0,0,8,8,141,93.05271339416504,,,,,,,,,,,,,,,,,,,,,,,,,,,,,,,,,,,,,,,,,,,,,,,,,,,,,,,,,,,,,,,,,,,,,,,,,,,,,,,,,67.45762689887063,183.66576823639343,133.84638248922982,63.442808515007684,72.91273553102516,180.40801261496216,2.2,2.22,-220,259,0,-286,218,-260,93.0381088256836,93.0382125377655,93.04168391227722,93.05271339416504,93.20517897605896,93.20517897605896,93.20517897605896,93.20517897605896,93.20517897605896,93.20517897605896,93.20517897605896,95.85635471343994,3,2.800335645675659,None,,,,,,,,,,,,,,,,,,6,2,2025-02-13_11h54.26.891,comp,2024.2.5,57.093790921737906,2025-02-13 11h57.46.027236 -0500,
9,9,0,filler_square,None,None,None,None,None,None,None,None,None,None,1,11.131414890289307,None,,,,,0,0,0,0,0,9,9,185,95.87305331230164,,,,,,,,,,,,,,,,,,,,,,,,,,,,,,,,,,,,,,,,,,,,,,,,,,,,,,,,,,,,,,,,,,,,,,,,,,,,,,,,,67.08114633209641,67.08114633209641,61.44503442246409,63.33018300022235,58.28730278370103,58.717751065566006,2.2,2.22,-161,261,0,-262,157,-260,95.85824632644653,95.8583312034607,95.86188077926636,95.87305331230164,96.02295398712158,96.02295398712158,96.02295398712158,96.02295398712158,96.02295398712158,96.02295398712158,96.02295398712158,107.02313899993896,1,11.131414890289307,None,,,,,,,,,,,,,,,,,,6,2,2025-02-13_11h54.26.891,comp,2024.2.5,57.093790921737906,2025-02-13 11h57.46.027236 -0500,
10,10,0,filler_square,None,None,None,None,None,None,None,None,None,None,2,4.105664968490601,None,,,,,0,0,0,0,0,10,10,188,107.04429626464844,,,,,,,,,,,,,,,,,,,,,,,,,,,,,,,,,,,,,,,,,,,,,,,,,,,,,,,,,,,,,,,,,,,,,,,,,,,,,,,,,125.33830385789565,183.26939779303854,198.39035537057308,198.39035537057308,137.71789039263427,184.01371596488167,3.0,3.1,-287,268,0,-12,287,-276,107.02521777153015,107.0253005027771,107.0290379524231,107.04429626464844,107.19234895706177,107.19234895706177,107.19234895706177,107.19234895706177,107.19234895706177,107.19234895706177,107.19234895706177,111.16097664833069,2,4.105664968490601,None,,,,,,,,,,,,,,,,,,6,2,2025-02-13_11h54.26.891,comp,2024.2.5,57.093790921737906,2025-02-13 11h57.46.027236 -0500,
11,11,0,critical,whd,45.0,3.0,upper,125.0,200.0,200.0,125.0,117.0,117.0,1,3.2670929431915283,None,,,,,0,0,0,0,0,11,11,87,111.17723369598389,,,,,,,,,,,,,,,,,,,,,,,,,,,,,,,,,,,,,,,,,,,,,,,,,,,,,,,,,,,,,,,,,,,,,,,,,,,,,,,,,125.0,200.0,200.0,125.0,117.0,117.0,3.0,3.1,-258,255,0,1,217,-256,111.16260004043579,111.16267991065979,111.16636800765991,111.17723369598389,111.33147835731506,111.33147835731506,111.33147835731506,111.33147835731506,111.33147835731506,111.33147835731506,111.33147835731506,114.46038722991943,1,3.2670929431915283,None,,,,,,,,,,,,,,,,,,6,2,2025-02-13_11h54.26.891,comp,2024.2.5,57.093790921737906,2025-02-13 11h57.46.027236 -0500,
12,12,0,catch,None,None,None,None,None,None,None,None,None,None,1,1.9151394367218018,None,,,,,0,0,0,0,0,12,12,128,114.48109531402588,,,,,,,,,,,,,,,,,,,,,,,,,,,,,,,,,,,,,,,,,,,,,,,,,,,,,,,,,,,,,,,,,,,,,,,,,,,,,,,,,167,158,88,102,81,109,2.1,2.11,-226,287,0,283,202,-268,114.46240615844727,114.46248459815979,114.46578741073608,114.48109531402588,114.62728428840637,114.62728428840637,114.62728428840637,114.62728428840637,114.62728428840637,114.62728428840637,114.62728428840637,116.4125337600708,1,1.9151394367218018,None,,,,,,,,,,,,,,,,,,6,2,2025-02-13_11h54.26.891,comp,2024.2.5,57.093790921737906,2025-02-13 11h57.46.027236 -0500,
13,13,0,filler_square,None,None,None,None,None,None,None,None,None,None,2,1.8077690601348877,None,,,,,0,0,0,0,0,13,13,207,116.42930889129639,,,,,,,,,,,,,,,,,,,,,,,,,,,,,,,,,,,,,,,,,,,,,,,,,,,,,,,,,,,,,,,,,,,,,,,,,,,,,,,,,61.822217235186386,57.77153290507205,62.25849497525615,62.25849497525615,57.4767417106157,59.0486570881441,2.2,2.22,-156,281,0,-253,157,-254,116.41453766822815,116.41462063789368,116.41842842102051,116.42930889129639,116.58042597770691,116.58042597770691,116.58042597770691,116.58042597770691,116.58042597770691,116.58042597770691,116.58042597770691,118.24462532997131,2,1.8077690601348877,None,,,,,,,,,,,,,,,,,,6,2,2025-02-13_11h54.26.891,comp,2024.2.5,57.093790921737906,2025-02-13 11h57.46.027236 -0500,
14,14,0,filler_random,None,None,None,None,None,None,None,None,None,None,2,8.075407028198242,None,,,,,0,0,0,0,0,14,14,151,118.26545715332031,,,,,,,,,,,,,,,,,,,,,,,,,,,,,,,,,,,,,,,,,,,,,,,,,,,,,,,,,,,,,,,,,,,,,,,,,,,,,,,,,135.58469161683263,95.87023315733188,172.59610447158644,87.95628363324101,60.021169069310645,71.71453308737583,1.0,1.1,-668,263,-480,267,-304,272,118.24647855758667,118.24661493301392,118.25005555152893,118.26545715332031,118.41175675392151,118.41175675392151,118.41175675392151,118.41175675392151,118.41175675392151,118.41175675392151,118.41175675392151,126.34778118133545,2,8.075407028198242,None,,,,,,,,,,,,,,,,,,6,2,2025-02-13_11h54.26.891,comp,2024.2.5,57.093790921737906,2025-02-13 11h57.46.027236 -0500,
15,15,0,critical,hwd,45.0,4.0,upper,200.0,125.0,125.0,200.0,117.0,117.0,2,3.231959581375122,None,,,,,0,0,0,0,0,15,15,101,126.36428356170654,,,,,,,,,,,,,,,,,,,,,,,,,,,,,,,,,,,,,,,,,,,,,,,,,,,,,,,,,,,,,,,,,,,,,,,,,,,,,,,,,200.0,125.0,125.0,200.0,117.0,117.0,4.0,4.1,-258,-267,0,1,254,-259,126.34951901435852,126.3496527671814,126.35348629951477,126.36428356170654,126.51451992988586,126.51451992988586,126.51451992988586,126.51451992988586,126.51451992988586,126.51451992988586,126.51451992988586,129.60812282562256,2,3.231959581375122,None,,,,,,,,,,,,,,,,,,6,2,2025-02-13_11h54.26.891,comp,2024.2.5,57.093790921737906,2025-02-13 11h57.46.027236 -0500,
16,16,0,filler_square,None,None,None,None,None,None,None,None,None,None,2,1.9918582439422607,None,,,,,0,0,0,0,0,16,16,204,129.62906503677368,,,,,,,,,,,,,,,,,,,,,,,,,,,,,,,,,,,,,,,,,,,,,,,,,,,,,,,,,,,,,,,,,,,,,,,,,,,,,,,,,58.707088405612765,75.68522343106416,188.92053055845506,188.92053055845506,108.27073048310632,171.04376538167412,2.2,2.21,-228,-282,0,266,276,257,129.61003160476685,129.6101131439209,129.6133165359497,129.62906503677368,129.76481413841248,129.76481413841248,129.76481413841248,129.76481413841248,129.76481413841248,129.76481413841248,129.76481413841248,131.640305519104,2,1.9918582439422607,None,,,,,,,,,,,,,,,,,,6,2,2025-02-13_11h54.26.891,comp,2024.2.5,57.093790921737906,2025-02-13 11h57.46.027236 -0500,
17,17,0,filler_random,None,None,None,None,None,None,None,None,None,None,1,2.3519105911254883,None,,,,,0,0,0,0,0,17,17,158,131.66037893295288,,,,,,,,,,,,,,,,,,,,,,,,,,,,,,,,,,,,,,,,,,,,,,,,,,,,,,,,,,,,,,,,,,,,,,,,,,,,,,,,,190.92805745840445,146.23213857656407,132.87251968408452,76.54637517218302,96.74568532569387,65.7610881755597,2.2,2.21,-207,-277,0,252,167,276,131.6420476436615,131.64212608337402,131.64524865150452,131.66037893295288,131.7996575832367,131.7996575832367,131.7996575832367,131.7996575832367,131.7996575832367,131.7996575832367,131.7996575832367,134.01796126365662,1,2.3519105911254883,None,,,,,,,,,,,,,,,,,,6,2,2025-02-13_11h54.26.891,comp,2024.2.5,57.093790921737906,2025-02-13 11h57.46.027236 -0500,
18,18,0,critical,whd,60.0,2.1,upper,125.0,200.0,200.0,125.0,100.0,100.0,1,2.0964465141296387,None,,,,,0,0,0,0,0,18,18,15,134.03539776802063,,,,,,,,,,,,,,,,,,,,,,,,,,,,,,,,,,,,,,,,,,,,,,,,,,,,,,,,,,,,,,,,,,,,,,,,,,,,,,,,,125.0,200.0,200.0,125.0,100.0,100.0,2.1,2.11,-258,261,0,289,208,-286,134.01978397369385,134.01991820335388,134.0236165523529,134.03539776802063,134.1828007698059,134.1828007698059,134.1828007698059,134.1828007698059,134.1828007698059,134.1828007698059,134.1828007698059,136.1361699104309,1,2.0964465141296387,None,,,,,,,,,,,,,,,,,,6,2,2025-02-13_11h54.26.891,comp,2024.2.5,57.093790921737906,2025-02-13 11h57.46.027236 -0500,
19,19,0,filler_random,None,None,None,None,None,None,None,None,None,None,2,1.8829138278961182,None,,,,,0,0,0,0,0,19,19,165,136.15331554412842,,,,,,,,,,,,,,,,,,,,,,,,,,,,,,,,,,,,,,,,,,,,,,,,,,,,,,,,,,,,,,,,,,,,,,,,,,,,,,,,,105.57355404875406,120.08553953676224,190.2181313957076,128.44476578640484,128.1661265473071,157.73802800769732,2.2,2.21,-220,-280,0,265,239,270,136.13805508613586,136.13813591003418,136.14163541793823,136.15331554412842,136.29925918579102,136.29925918579102,136.29925918579102,136.29925918579102,136.29925918579102,136.29925918579102,136.29925918579102,138.05406260490417,2,1.8829138278961182,None,,,,,,,,,,,,,,,,,,6,2,2025-02-13_11h54.26.891,comp,2024.2.5,57.093790921737906,2025-02-13 11h57.46.027236 -0500,
20,20,0,filler_square,None,None,None,None,None,None,None,None,None,None,1,1.1492083072662354,None,,,,,0,0,0,0,0,20,20,186,138.0706810951233,,,,,,,,,,,,,,,,,,,,,,,,,,,,,,,,,,,,,,,,,,,,,,,,,,,,,,,,,,,,,,,,,,,,,,,,,,,,,,,,,109.15570979113205,109.15570979113205,64.87460071742964,74.58751895793304,62.767075325190085,59.5414372256272,2.1,2.11,-188,256,0,255,163,-252,138.0562539100647,138.0563371181488,138.06016397476196,138.0706810951233,138.22583317756653,138.22583317756653,138.22583317756653,138.22583317756653,138.22583317756653,138.22583317756653,138.22583317756653,139.23505544662476,1,1.1492083072662354,None,,,,,,,,,,,,,,,,,,6,2,2025-02-13_11h54.26.891,comp,2024.2.5,57.093790921737906,2025-02-13 11h57.46.027236 -0500,
21,21,0,critical,dhw,45.0,4.0,lower,65.0,65.0,133.0,57.0,57.0,133.0,3,1.0810513496398926,None,,,,,0,0,0,0,0,21,21,52,139.2510471343994,,,,,,,,,,,,,,,,,,,,,,,,,,,,,,,,,,,,,,,,,,,,,,,,,,,,,,,,,,,,,,,,,,,,,,,,,,,,,,,,,65.0,65.0,133.0,57.0,57.0,133.0,4.0,4.1,-157,-284,0,-19,191,-271,139.23679518699646,139.23693084716797,139.2407467365265,139.2510471343994,139.39886689186096,139.39886689186096,139.39886689186096,139.39886689186096,139.39886689186096,139.39886689186096,139.39886689186096,140.33416318893433,3,1.0810513496398926,None,,,,,,,,,,,,,,,,,,6,2,2025-02-13_11h54.26.891,comp,2024.2.5,57.093790921737906,2025-02-13 11h57.46.027236 -0500,
22,22,0,critical,dwh,60.0,1.0,lower,55.0,55.0,57.0,133.0,133.0,57.0,2,2.3810982704162598,None,,,,,0,0,0,0,0,22,22,66,140.35207653045654,,,,,,,,,,,,,,,,,,,,,,,,,,,,,,,,,,,,,,,,,,,,,,,,,,,,,,,,,,,,,,,,,,,,,,,,,,,,,,,,,55.0,55.0,57.0,133.0,133.0,57.0,1.0,1.3,290,-290,480,-263,671,-280,140.33588123321533,140.33601760864258,140.33975195884705,140.35207653045654,140.50858640670776,140.50858640670776,140.50858640670776,140.50858640670776,140.50858640670776,140.50858640670776,140.50858640670776,142.751638174057,2,2.3810982704162598,None,,,,,,,,,,,,,,,,,,6,2,2025-02-13_11h54.26.891,comp,2024.2.5,57.093790921737906,2025-02-13 11h57.46.027236 -0500,
23,23,0,filler_square,None,None,None,None,None,None,None,None,None,None,3,1.1210236549377441,None,,,,,0,0,0,0,0,23,23,171,142.76816058158875,,,,,,,,,,,,,,,,,,,,,,,,,,,,,,,,,,,,,,,,,,,,,,,,,,,,,,,,,,,,,,,,,,,,,,,,,,,,,,,,,62.99470239709701,97.4033507798724,62.50472442389415,85.13087930971534,164.37570018414533,164.37570018414533,2.2,2.22,-187,283,0,-266,221,-275,142.75351405143738,142.75359344482422,142.75687837600708,142.76816058158875,142.92399954795837,142.92399954795837,142.92399954795837,142.92399954795837,142.92399954795837,142.92399954795837,142.92399954795837,143.9016556739807,3,1.1210236549377441,None,,,,,,,,,,,,,,,,,,6,2,2025-02-13_11h54.26.891,comp,2024.2.5,57.093790921737906,2025-02-13 11h57.46.027236 -0500,
24,24,0,catch,None,None,None,None,None,None,None,None,None,None,2,1.436063528060913,None,,,,,0,0,0,0,0,24,24,127,143.91948986053467,,,,,,,,,,,,,,,,,,,,,,,,,,,,,,,,,,,,,,,,,,,,,,,,,,,,,,,,,,,,,,,,,,,,,,,,,,,,,,,,,100,90,187,138,66,124,1.0,1.1,-690,267,-480,275,-253,283,143.90385007858276,143.90392875671387,143.90744471549988,143.91948986053467,144.06993770599365,144.06993770599365,144.06993770599365,144.06993770599365,144.06993770599365,144.06993770599365,144.06993770599365,145.37231826782227,2,1.436063528060913,None,,,,,,,,,,,,,,,,,,6,2,2025-02-13_11h54.26.891,comp,2024.2.5,57.093790921737906,2025-02-13 11h57.46.027236 -0500,
25,25,0,critical,wdh,60.0,3.0,lower,57.0,133.0,55.0,55.0,133.0,57.0,1,1.693500280380249,None,,,,,0,0,0,0,0,25,25,80,145.3905975818634,,,,,,,,,,,,,,,,,,,,,,,,,,,,,,,,,,,,,,,,,,,,,,,,,,,,,,,,,,,,,,,,,,,,,,,,,,,,,,,,,57.0,133.0,55.0,55.0,133.0,57.0,3.0,3.1,-190,263,0,2,152,-262,145.3743381500244,145.37441897392273,145.37820959091187,145.3905975818634,145.5432460308075,145.5432460308075,145.5432460308075,145.5432460308075,145.5432460308075,145.5432460308075,145.5432460308075,147.08692908287048,1,1.693500280380249,None,,,,,,,,,,,,,,,,,,6,2,2025-02-13_11h54.26.891,comp,2024.2.5,57.093790921737906,2025-02-13 11h57.46.027236 -0500,
26,26,0,filler_random,None,None,None,None,None,None,None,None,None,None,1,3.1639764308929443,None,,,,,0,0,0,0,0,26,26,164,147.1038863658905,,,,,,,,,,,,,,,,,,,,,,,,,,,,,,,,,,,,,,,,,,,,,,,,,,,,,,,,,,,,,,,,,,,,,,,,,,,,,,,,,95.21280218242384,177.80426441768213,85.6639675756951,185.4839960273557,167.67462917549858,83.31172703447196,4.0,4.1,-278,-253,0,0,230,-259,147.08871173858643,147.0887942314148,147.09233117103577,147.1038863658905,147.25495100021362,147.25495100021362,147.25495100021362,147.25495100021362,147.25495100021362,147.25495100021362,147.25495100021362,150.288880109787,1,3.1639764308929443,None,,,,,,,,,,,,,,,,,,6,2,2025-02-13_11h54.26.891,comp,2024.2.5,57.093790921737906,2025-02-13 11h57.46.027236 -0500,
27,27,0,critical,hwd,45.0,2.1,lower,133.0,57.0,57.0,133.0,65.0,65.0,1,4.410892486572266,None,,,,,0,0,0,0,0,27,27,16,150.30546712875366,,,,,,,,,,,,,,,,,,,,,,,,,,,,,,,,,,,,,,,,,,,,,,,,,,,,,,,,,,,,,,,,,,,,,,,,,,,,,,,,,133.0,57.0,57.0,133.0,65.0,65.0,2.1,2.12,-191,-266,0,-263,195,258,150.2905797958374,150.2907099723816,150.29413747787476,150.30546712875366,150.45774865150452,150.45774865150452,150.45774865150452,150.45774865150452,150.45774865150452,150.45774865150452,150.45774865150452,154.72147750854492,1,4.410892486572266,None,,,,,,,,,,,,,,,,,,6,2,2025-02-13_11h54.26.891,comp,2024.2.5,57.093790921737906,2025-02-13 11h57.46.027236 -0500,
28,28,0,filler_square,None,None,None,None,None,None,None,None,None,None,1,1.1356136798858643,None,,,,,0,0,0,0,0,28,28,199,154.73969435691833,,,,,,,,,,,,,,,,,,,,,,,,,,,,,,,,,,,,,,,,,,,,,,,,,,,,,,,,,,,,,,,,,,,,,,,,,,,,,,,,,124.37799321856588,124.37799321856588,102.5769926764217,113.86881129131464,87.58852883365086,103.82824349237829,2.1,2.12,-215,-281,0,-256,205,268,154.72357153892517,154.7236521244049,154.72724795341492,154.73969435691833,154.89004254341125,154.89004254341125,154.89004254341125,154.89004254341125,154.89004254341125,154.89004254341125,154.89004254341125,155.8904266357422,1,1.1356136798858643,None,,,,,,,,,,,,,,,,,,6,2,2025-02-13_11h54.26.891,comp,2024.2.5,57.093790921737906,2025-02-13 11h57.46.027236 -0500,
29,29,0,critical,hdw,45.0,1.0,lower,133.0,57.0,65.0,65.0,57.0,133.0,3,4.224969148635864,None,,,,,0,0,0,0,0,29,29,108,155.9065878391266,,,,,,,,,,,,,,,,,,,,,,,,,,,,,,,,,,,,,,,,,,,,,,,,,,,,,,,,,,,,,,,,,,,,,,,,,,,,,,,,,133.0,57.0,65.0,65.0,57.0,133.0,1.0,1.1,-637,265,-480,257,-285,265,155.8922257423401,155.8923614025116,155.8961353302002,155.9065878391266,156.06250047683716,156.06250047683716,156.06250047683716,156.06250047683716,156.06250047683716,156.06250047683716,156.06250047683716,160.14885473251343,3,4.224969148635864,None,,,,,,,,,,,,,,,,,,6,2,2025-02-13_11h54.26.891,comp,2024.2.5,57.093790921737906,2025-02-13 11h57.46.027236 -0500,
30,30,0,critical,dhw,45.0,4.0,upper,117.0,117.0,200.0,125.0,125.0,200.0,3,1.5243110656738281,None,,,,,0,0,0,0,0,30,30,53,160.16666769981384,,,,,,,,,,,,,,,,,,,,,,,,,,,,,,,,,,,,,,,,,,,,,,,,,,,,,,,,,,,,,,,,,,,,,,,,,,,,,,,,,117.0,117.0,200.0,125.0,125.0,200.0,4.0,4.2,-217,-6,0,-253,258,17,160.15039730072021,160.15047669410706,160.1535918712616,160.16666769981384,160.30667972564697,160.30667972564697,160.30667972564697,160.30667972564697,160.30667972564697,160.30667972564697,160.30667972564697,161.7046675682068,3,1.5243110656738281,None,,,,,,,,,,,,,,,,,,6,2,2025-02-13_11h54.26.891,comp,2024.2.5,57.093790921737906,2025-02-13 11h57.46.027236 -0500,
31,31,0,catch,None,None,None,None,None,None,None,None,None,None,3,1.2714784145355225,None,,,,,0,0,0,0,0,31,31,125,161.72358393669128,,,,,,,,,,,,,,,,,,,,,,,,,,,,,,,,,,,,,,,,,,,,,,,,,,,,,,,,,,,,,,,,,,,,,,,,,,,,,,,,,78,112,104,86,133,192,2.1,2.12,-195,-271,0,-267,235,276,161.70681738853455,161.70689868927002,161.7105164527893,161.72358393669128,161.85810232162476,161.85810232162476,161.85810232162476,161.85810232162476,161.85810232162476,161.85810232162476,161.85810232162476,163.00845193862915,3,1.2714784145355225,None,,,,,,,,,,,,,,,,,,6,2,2025-02-13_11h54.26.891,comp,2024.2.5,57.093790921737906,2025-02-13 11h57.46.027236 -0500,
32,32,0,filler_square,None,None,None,None,None,None,None,None,None,None,3,1.2662773132324219,None,,,,,0,0,0,0,0,32,32,177,163.02469325065613,,,,,,,,,,,,,,,,,,,,,,,,,,,,,,,,,,,,,,,,,,,,,,,,,,,,,,,,,,,,,,,,,,,,,,,,,,,,,,,,,132.2275089924014,134.8320152775471,120.05781560368895,98.24702151845382,153.27679492132938,153.27679492132938,1.0,1.1,-693,267,-480,252,-258,282,163.01031398773193,163.01039791107178,163.01425051689148,163.02469325065613,163.17243480682373,163.17243480682373,163.17243480682373,163.17243480682373,163.17243480682373,163.17243480682373,163.17243480682373,164.30574822425842,3,1.2662773132324219,None,,,,,,,,,,,,,,,,,,6,2,2025-02-13_11h54.26.891,comp,2024.2.5,57.093790921737906,2025-02-13 11h57.46.027236 -0500,
33,33,0,critical,dwh,60.0,2.1,upper,100.0,100.0,125.0,200.0,200.0,125.0,2,1.210413932800293,None,,,,,0,0,0,0,0,33,33,31,164.3218536376953,,,,,,,,,,,,,,,,,,,,,,,,,,,,,,,,,,,,,,,,,,,,,,,,,,,,,,,,,,,,,,,,,,,,,,,,,,,,,,,,,100.0,100.0,125.0,200.0,200.0,125.0,2.1,2.12,-246,-286,0,-256,258,288,164.30738019943237,164.3074598312378,164.31064558029175,164.3218536376953,164.4602711200714,164.4602711200714,164.4602711200714,164.4602711200714,164.4602711200714,164.4602711200714,164.4602711200714,165.5392665863037,2,1.210413932800293,None,,,,,,,,,,,,,,,,,,6,2,2025-02-13_11h54.26.891,comp,2024.2.5,57.093790921737906,2025-02-13 11h57.46.027236 -0500,
34,34,0,critical,dwh,60.0,3.0,upper,100.0,100.0,125.0,200.0,200.0,125.0,2,1.135000228881836,None,,,,,0,0,0,0,0,34,34,69,165.55588555335999,,,,,,,,,,,,,,,,,,,,,,,,,,,,,,,,,,,,,,,,,,,,,,,,,,,,,,,,,,,,,,,,,,,,,,,,,,,,,,,,,100.0,100.0,125.0,200.0,200.0,125.0,3.0,3.2,-246,-264,0,-18,258,264,165.54078078269958,165.54085993766785,165.54398202896118,165.55588555335999,165.69483757019043,165.69483757019043,165.69483757019043,165.69483757019043,165.69483757019043,165.69483757019043,165.69483757019043,166.7087001800537,2,1.135000228881836,None,,,,,,,,,,,,,,,,,,6,2,2025-02-13_11h54.26.891,comp,2024.2.5,57.093790921737906,2025-02-13 11h57.46.027236 -0500,
35,35,0,critical,hwd,60.0,2.1,upper,200.0,125.0,125.0,200.0,100.0,100.0,2,4.158740758895874,None,,,,,0,0,0,0,0,35,35,43,166.72466230392456,,,,,,,,,,,,,,,,,,,,,,,,,,,,,,,,,,,,,,,,,,,,,,,,,,,,,,,,,,,,,,,,,,,,,,,,,,,,,,,,,200.0,125.0,125.0,200.0,100.0,100.0,2.1,2.11,-258,259,0,259,246,-290,166.71024441719055,166.71032643318176,166.71367812156677,166.72466230392456,166.88125038146973,166.88125038146973,166.88125038146973,166.88125038146973,166.88125038146973,166.88125038146973,166.88125038146973,170.89079403877258,2,4.158740758895874,None,,,,,,,,,,,,,,,,,,6,2,2025-02-13_11h54.26.891,comp,2024.2.5,57.093790921737906,2025-02-13 11h57.46.027236 -0500,
36,36,0,critical,wdh,45.0,3.0,lower,57.0,133.0,65.0,65.0,133.0,57.0,1,5.748247385025024,None,,,,,0,0,0,0,0,36,36,74,170.91128849983215,,,,,,,,,,,,,,,,,,,,,,,,,,,,,,,,,,,,,,,,,,,,,,,,,,,,,,,,,,,,,,,,,,,,,,,,,,,,,,,,,57.0,133.0,65.0,65.0,133.0,57.0,3.0,3.2,-195,-253,0,18,157,269,170.89234471321106,170.89242839813232,170.89555048942566,170.91128849983215,171.0444781780243,171.0444781780243,171.0444781780243,171.0444781780243,171.0444781780243,171.0444781780243,171.0444781780243,176.66369915008545,1,5.748247385025024,None,,,,,,,,,,,,,,,,,,6,2,2025-02-13_11h54.26.891,comp,2024.2.5,57.093790921737906,2025-02-13 11h57.46.027236 -0500,
37,37,0,filler_random,None,None,None,None,None,None,None,None,None,None,2,0.9447774887084961,None,,,,,0,0,0,0,0,37,37,146,176.68211579322815,,,,,,,,,,,,,,,,,,,,,,,,,,,,,,,,,,,,,,,,,,,,,,,,,,,,,,,,,,,,,,,,,,,,,,,,,,,,,,,,,144.36561660545107,120.36245623744374,186.87662142987327,178.80343907260544,169.7705498740642,123.77820466625674,2.1,2.11,-246,273,0,268,247,-264,176.66556406021118,176.66564679145813,176.66891980171204,176.68211579322815,176.82952880859375,176.82952880859375,176.82952880859375,176.82952880859375,176.82952880859375,176.82952880859375,176.82952880859375,177.64471626281738,2,0.9447774887084961,None,,,,,,,,,,,,,,,,,,6,2,2025-02-13_11h54.26.891,comp,2024.2.5,57.093790921737906,2025-02-13 11h57.46.027236 -0500,
38,38,0,critical,whd,45.0,4.0,upper,125.0,200.0,200.0,125.0,117.0,117.0,1,2.165201187133789,None,,,,,0,0,0,0,0,38,38,89,177.6614112854004,,,,,,,,,,,,,,,,,,,,,,,,,,,,,,,,,,,,,,,,,,,,,,,,,,,,,,,,,,,,,,,,,,,,,,,,,,,,,,,,,125.0,200.0,200.0,125.0,117.0,117.0,4.0,4.2,-258,-2,0,-254,217,5,177.64635562896729,177.64645648002625,177.6501030921936,177.6614112854004,177.8010711669922,177.8010711669922,177.8010711669922,177.8010711669922,177.8010711669922,177.8010711669922,177.8010711669922,179.83939361572266,1,2.165201187133789,None,,,,,,,,,,,,,,,,,,6,2,2025-02-13_11h54.26.891,comp,2024.2.5,57.093790921737906,2025-02-13 11h57.46.027236 -0500,
39,39,0,critical,hwd,60.0,2.1,lower,133.0,57.0,57.0,133.0,55.0,55.0,2,3.2090396881103516,None,,,,,0,0,0,0,0,39,39,18,179.85747933387756,,,,,,,,,,,,,,,,,,,,,,,,,,,,,,,,,,,,,,,,,,,,,,,,,,,,,,,,,,,,,,,,,,,,,,,,,,,,,,,,,133.0,57.0,57.0,133.0,55.0,55.0,2.1,2.11,-191,275,0,278,190,-253,179.8410623073578,179.84121561050415,179.84477615356445,179.85747933387756,179.99687480926514,179.99687480926514,179.99687480926514,179.99687480926514,179.99687480926514,179.99687480926514,179.99687480926514,183.08044838905334,2,3.2090396881103516,None,,,,,,,,,,,,,,,,,,6,2,2025-02-13_11h54.26.891,comp,2024.2.5,57.093790921737906,2025-02-13 11h57.46.027236 -0500,
40,40,0,filler_random,None,None,None,None,None,None,None,None,None,None,3,7.737450838088989,None,,,,,0,0,0,0,0,40,40,147,183.09681916236877,,,,,,,,,,,,,,,,,,,,,,,,,,,,,,,,,,,,,,,,,,,,,,,,,,,,,,,,,,,,,,,,,,,,,,,,,,,,,,,,,186.18997576424886,77.8206184369467,72.78304135075538,77.89193811240314,80.78469046318259,149.98155476181654,3.0,3.1,-174,262,0,14,210,-270,183.08251118659973,183.08258891105652,183.0863676071167,183.09681916236877,183.2494797706604,183.2494797706604,183.2494797706604,183.2494797706604,183.2494797706604,183.2494797706604,183.2494797706604,190.84966683387756,3,7.737450838088989,None,,,,,,,,,,,,,,,,,,6,2,2025-02-13_11h54.26.891,comp,2024.2.5,57.093790921737906,2025-02-13 11h57.46.027236 -0500,
41,41,0,critical,hwd,60.0,1.0,upper,200.0,125.0,125.0,200.0,100.0,100.0,2,6.048415184020996,None,,,,,0,0,0,0,0,41,41,103,190.8654773235321,,,,,,,,,,,,,,,,,,,,,,,,,,,,,,,,,,,,,,,,,,,,,,,,,,,,,,,,,,,,,,,,,,,,,,,,,,,,,,,,,200.0,125.0,125.0,200.0,100.0,100.0,1.0,1.2,-258,-9,0,4,246,10,190.85125541687012,190.8513526916504,190.85508251190186,190.8654773235321,191.0172951221466,191.0172951221466,191.0172951221466,191.0172951221466,191.0172951221466,191.0172951221466,191.0172951221466,196.91836667060852,2,6.048415184020996,None,,,,,,,,,,,,,,,,,,6,2,2025-02-13_11h54.26.891,comp,2024.2.5,57.093790921737906,2025-02-13 11h57.46.027236 -0500,
42,42,0,critical,dhw,60.0,2.1,upper,100.0,100.0,200.0,125.0,125.0,200.0,3,2.0216634273529053,None,,,,,0,0,0,0,0,42,42,3,196.93258213996887,,,,,,,,,,,,,,,,,,,,,,,,,,,,,,,,,,,,,,,,,,,,,,,,,,,,,,,,,,,,,,,,,,,,,,,,,,,,,,,,,100.0,100.0,200.0,125.0,125.0,200.0,2.1,2.11,-208,273,0,280,258,-290,196.91937947273254,196.9194278717041,196.921555519104,196.93258213996887,197.0840094089508,197.0840094089508,197.0840094089508,197.0840094089508,197.0840094089508,197.0840094089508,197.0840094089508,198.95830821990967,3,2.0216634273529053,None,,,,,,,,,,,,,,,,,,6,2,2025-02-13_11h54.26.891,comp,2024.2.5,57.093790921737906,2025-02-13 11h57.46.027236 -0500,
43,43,0,critical,whd,45.0,1.0,upper,125.0,200.0,200.0,125.0,117.0,117.0,1,4.25535774230957,None,,,,,0,0,0,0,0,43,43,85,198.9792857170105,,,,,,,,,,,,,,,,,,,,,,,,,,,,,,,,,,,,,,,,,,,,,,,,,,,,,,,,,,,,,,,,,,,,,,,,,,,,,,,,,125.0,200.0,200.0,125.0,117.0,117.0,1.0,1.3,222,-282,480,-274,697,-274,198.9599208831787,198.96004962921143,198.96363830566406,198.9792857170105,199.11887574195862,199.11887574195862,199.11887574195862,199.11887574195862,199.11887574195862,199.11887574195862,199.11887574195862,203.2524025440216,1,4.25535774230957,None,,,,,,,,,,,,,,,,,,6,2,2025-02-13_11h54.26.891,comp,2024.2.5,57.093790921737906,2025-02-13 11h57.46.027236 -0500,
44,44,0,critical,hwd,45.0,2.1,upper,200.0,125.0,125.0,200.0,117.0,117.0,2,2.596734046936035,None,,,,,0,0,0,0,0,44,44,41,203.269846200943,,,,,,,,,,,,,,,,,,,,,,,,,,,,,,,,,,,,,,,,,,,,,,,,,,,,,,,,,,,,,,,,,,,,,,,,,,,,,,,,,200.0,125.0,125.0,200.0,117.0,117.0,2.1,2.11,-258,270,0,269,254,-282,203.25404000282288,203.2541687488556,203.25774478912354,203.269846200943,203.42034316062927,203.42034316062927,203.42034316062927,203.42034316062927,203.42034316062927,203.42034316062927,203.42034316062927,205.8694040775299,2,2.596734046936035,None,,,,,,,,,,,,,,,,,,6,2,2025-02-13_11h54.26.891,comp,2024.2.5,57.093790921737906,2025-02-13 11h57.46.027236 -0500,
45,45,0,critical,hdw,45.0,1.0,upper,200.0,125.0,117.0,117.0,125.0,200.0,3,4.120244741439819,None,,,,,0,0,0,0,0,45,45,109,205.89060521125793,,,,,,,,,,,,,,,,,,,,,,,,,,,,,,,,,,,,,,,,,,,,,,,,,,,,,,,,,,,,,,,,,,,,,,,,,,,,,,,,,200.0,125.0,117.0,117.0,125.0,200.0,1.0,1.2,-217,0,0,14,254,-17,205.87100863456726,205.87109065055847,205.87465596199036,205.89060521125793,206.03330326080322,206.03330326080322,206.03330326080322,206.03330326080322,206.03330326080322,206.03330326080322,206.03330326080322,210.01907467842102,3,4.120244741439819,None,,,,,,,,,,,,,,,,,,6,2,2025-02-13_11h54.26.891,comp,2024.2.5,57.093790921737906,2025-02-13 11h57.46.027236 -0500,
46,46,0,filler_random,None,None,None,None,None,None,None,None,None,None,2,1.310260534286499,None,,,,,0,0,0,0,0,46,46,133,210.03541612625122,,,,,,,,,,,,,,,,,,,,,,,,,,,,,,,,,,,,,,,,,,,,,,,,,,,,,,,,,,,,,,,,,,,,,,,,,,,,,,,,,122.04938187260396,117.1753127014556,141.9499781774894,193.32772464710476,101.23356977933344,179.56959041732432,1.0,1.2,-251,-6,0,-11,282,18,210.0208296775818,210.02094054222107,210.0240535736084,210.03541612625122,210.18540954589844,210.18540954589844,210.18540954589844,210.18540954589844,210.18540954589844,210.18540954589844,210.18540954589844,211.35564398765564,2,1.310260534286499,None,,,,,,,,,,,,,,,,,,6,2,2025-02-13_11h54.26.891,comp,2024.2.5,57.093790921737906,2025-02-13 11h57.46.027236 -0500,
47,47,0,critical,dhw,45.0,2.1,upper,117.0,117.0,200.0,125.0,125.0,200.0,3,1.3007817268371582,None,,,,,0,0,0,0,0,47,47,25,211.37314677238464,,,,,,,,,,,,,,,,,,,,,,,,,,,,,,,,,,,,,,,,,,,,,,,,,,,,,,,,,,,,,,,,,,,,,,,,,,,,,,,,,117.0,117.0,200.0,125.0,125.0,200.0,2.1,2.11,-217,271,0,280,258,-288,211.35728549957275,211.3573637008667,211.36166715621948,211.37314677238464,211.5221447944641,211.5221447944641,211.5221447944641,211.5221447944641,211.5221447944641,211.5221447944641,211.5221447944641,212.69016790390015,3,1.3007817268371582,None,,,,,,,,,,,,,,,,,,6,2,2025-02-13_11h54.26.891,comp,2024.2.5,57.093790921737906,2025-02-13 11h57.46.027236 -0500,
48,48,0,critical,hdw,60.0,2.1,lower,133.0,57.0,55.0,55.0,57.0,133.0,1,5.728445053100586,None,,,,,0,0,0,0,0,48,48,22,212.7060830593109,,,,,,,,,,,,,,,,,,,,,,,,,,,,,,,,,,,,,,,,,,,,,,,,,,,,,,,,,,,,,,,,,,,,,,,,,,,,,,,,,133.0,57.0,55.0,55.0,57.0,133.0,2.1,2.12,-152,-256,0,-262,190,281,212.69180631637573,212.69193696975708,212.69563221931458,212.7060830593109,212.8559136390686,212.8559136390686,212.8559136390686,212.8559136390686,212.8559136390686,212.8559136390686,212.8559136390686,218.44071674346924,1,5.728445053100586,None,,,,,,,,,,,,,,,,,,6,2,2025-02-13_11h54.26.891,comp,2024.2.5,57.093790921737906,2025-02-13 11h57.46.027236 -0500,
49,49,0,critical,dhw,60.0,2.1,lower,55.0,55.0,133.0,57.0,57.0,133.0,3,0.9683477878570557,None,,,,,0,0,0,0,0,49,49,26,218.45713257789612,,,,,,,,,,,,,,,,,,,,,,,,,,,,,,,,,,,,,,,,,,,,,,,,,,,,,,,,,,,,,,,,,,,,,,,,,,,,,,,,,55.0,55.0,133.0,57.0,57.0,133.0,2.1,2.12,-152,-268,0,-285,191,278,218.4424433708191,218.44252347946167,218.44616651535034,218.45713257789612,218.6061291694641,218.6061291694641,218.6061291694641,218.6061291694641,218.6061291694641,218.6061291694641,218.6061291694641,219.4417908191681,3,0.9683477878570557,None,,,,,,,,,,,,,,,,,,6,2,2025-02-13_11h54.26.891,comp,2024.2.5,57.093790921737906,2025-02-13 11h57.46.027236 -0500,
50,50,0,critical,whd,45.0,2.1,upper,125.0,200.0,200.0,125.0,117.0,117.0,1,3.100193738937378,None,,,,,0,0,0,0,0,50,50,37,219.46124958992004,,,,,,,,,,,,,,,,,,,,,,,,,,,,,,,,,,,,,,,,,,,,,,,,,,,,,,,,,,,,,,,,,,,,,,,,,,,,,,,,,125.0,200.0,200.0,125.0,117.0,117.0,2.1,2.12,-258,-260,0,-269,217,282,219.44339203834534,219.4434690475464,219.4470431804657,219.46124958992004,219.60878205299377,219.60878205299377,219.60878205299377,219.60878205299377,219.60878205299377,219.60878205299377,219.60878205299377,222.57411289215088,1,3.100193738937378,None,,,,,,,,,,,,,,,,,,6,2,2025-02-13_11h54.26.891,comp,2024.2.5,57.093790921737906,2025-02-13 11h57.46.027236 -0500,
51,51,0,filler_random,None,None,None,None,None,None,None,None,None,None,3,1.5082790851593018,None,,,,,0,0,0,0,0,51,51,149,222.5905408859253,,,,,,,,,,,,,,,,,,,,,,,,,,,,,,,,,,,,,,,,,,,,,,,,,,,,,,,,,,,,,,,,,,,,,,,,,,,,,,,,,113.48098256846518,109.83353592121023,146.04828753001055,104.30126747133355,96.96013564262213,198.29398637793358,2.1,2.11,-203,279,0,274,247,-283,222.57586216926575,222.5759415626526,222.57924699783325,222.5905408859253,222.72937417030334,222.72937417030334,222.72937417030334,222.72937417030334,222.72937417030334,222.72937417030334,222.72937417030334,224.1103060245514,3,1.5082790851593018,None,,,,,,,,,,,,,,,,,,6,2,2025-02-13_11h54.26.891,comp,2024.2.5,57.093790921737906,2025-02-13 11h57.46.027236 -0500,
52,52,0,critical,hwd,45.0,3.0,lower,133.0,57.0,57.0,133.0,65.0,65.0,2,0.9874637126922607,None,,,,,0,0,0,0,0,52,52,98,224.12707209587097,,,,,,,,,,,,,,,,,,,,,,,,,,,,,,,,,,,,,,,,,,,,,,,,,,,,,,,,,,,,,,,,,,,,,,,,,,,,,,,,,133.0,57.0,57.0,133.0,65.0,65.0,3.0,3.1,-191,255,0,6,195,-272,224.11206459999084,224.11223077774048,224.11639595031738,224.12707209587097,224.27625393867493,224.27625393867493,224.27625393867493,224.27625393867493,224.27625393867493,224.27625393867493,224.27625393867493,225.12600898742676,2,0.9874637126922607,None,,,,,,,,,,,,,,,,,,6,2,2025-02-13_11h54.26.891,comp,2024.2.5,57.093790921737906,2025-02-13 11h57.46.027236 -0500,
53,53,0,filler_square,None,None,None,None,None,None,None,None,None,None,3,6.321780681610107,None,,,,,0,0,0,0,0,53,53,172,225.14349365234375,,,,,,,,,,,,,,,,,,,,,,,,,,,,,,,,,,,,,,,,,,,,,,,,,,,,,,,,,,,,,,,,,,,,,,,,,,,,,,,,,58.91041378604323,59.48706789822332,57.95364981986733,59.2091669084208,59.7865155316161,59.7865155316161,2.2,2.22,-155,285,0,-251,155,-279,225.12797212600708,225.12805366516113,225.13235569000244,225.14349365234375,225.2956259250641,225.2956259250641,225.2956259250641,225.2956259250641,225.2956259250641,225.2956259250641,225.2956259250641,231.4766194820404,3,6.321780681610107,None,,,,,,,,,,,,,,,,,,6,2,2025-02-13_11h54.26.891,comp,2024.2.5,57.093790921737906,2025-02-13 11h57.46.027236 -0500,
54,54,0,critical,dhw,45.0,1.0,upper,117.0,117.0,200.0,125.0,125.0,200.0,3,2.6527161598205566,None,,,,,0,0,0,0,0,54,54,49,231.49333262443542,,,,,,,,,,,,,,,,,,,,,,,,,,,,,,,,,,,,,,,,,,,,,,,,,,,,,,,,,,,,,,,,,,,,,,,,,,,,,,,,,117.0,117.0,200.0,125.0,125.0,200.0,1.0,1.1,-697,259,-480,273,-222,273,231.47823071479797,231.47831225395203,231.481680393219,231.49333262443542,231.64389181137085,231.64389181137085,231.64389181137085,231.64389181137085,231.64389181137085,231.64389181137085,231.64389181137085,234.15255665779114,3,2.6527161598205566,None,,,,,,,,,,,,,,,,,,6,2,2025-02-13_11h54.26.891,comp,2024.2.5,57.093790921737906,2025-02-13 11h57.46.027236 -0500,
55,55,0,critical,wdh,45.0,2.1,lower,57.0,133.0,65.0,65.0,133.0,57.0,1,5.344130516052246,None,,,,,0,0,0,0,0,55,55,8,234.16948795318604,,,,,,,,,,,,,,,,,,,,,,,,,,,,,,,,,,,,,,,,,,,,,,,,,,,,,,,,,,,,,,,,,,,,,,,,,,,,,,,,,57.0,133.0,65.0,65.0,133.0,57.0,2.1,2.11,-195,282,0,279,157,-255,234.1544280052185,234.15455532073975,234.15803408622742,234.16948795318604,234.31533765792847,234.31533765792847,234.31533765792847,234.31533765792847,234.31533765792847,234.31533765792847,234.31533765792847,239.51575756072998,1,5.344130516052246,None,,,,,,,,,,,,,,,,,,6,2,2025-02-13_11h54.26.891,comp,2024.2.5,57.093790921737906,2025-02-13 11h57.46.027236 -0500,
56,56,0,catch,None,None,None,None,None,None,None,None,None,None,1,1.0683860778808594,None,,,,,0,0,0,0,0,56,56,129,239.53249859809875,,,,,,,,,,,,,,,,,,,,,,,,,,,,,,,,,,,,,,,,,,,,,,,,,,,,,,,,,,,,,,,,,,,,,,,,,,,,,,,,,146,179,78,112,105,85,2.1,2.11,-242,251,0,271,194,-286,239.5179557800293,239.51805925369263,239.5212950706482,239.53249859809875,239.6790747642517,239.6790747642517,239.6790747642517,239.6790747642517,239.6790747642517,239.6790747642517,239.6790747642517,240.61268973350525,1,1.0683860778808594,None,,,,,,,,,,,,,,,,,,6,2,2025-02-13_11h54.26.891,comp,2024.2.5,57.093790921737906,2025-02-13 11h57.46.027236 -0500,
57,57,0,filler_square,None,None,None,None,None,None,None,None,None,None,1,1.2830216884613037,None,,,,,0,0,0,0,0,57,57,187,240.629558801651,,,,,,,,,,,,,,,,,,,,,,,,,,,,,,,,,,,,,,,,,,,,,,,,,,,,,,,,,,,,,,,,,,,,,,,,,,,,,,,,,194.2491262982518,194.2491262982518,159.0917195018385,146.631831874378,96.2225227994127,185.34956535493077,2.2,2.21,-266,-251,0,260,262,278,240.6145625114441,240.61464190483093,240.61807107925415,240.629558801651,240.78074312210083,240.78074312210083,240.78074312210083,240.78074312210083,240.78074312210083,240.78074312210083,240.78074312210083,241.927259683609,1,1.2830216884613037,None,,,,,,,,,,,,,,,,,,6,2,2025-02-13_11h54.26.891,comp,2024.2.5,57.093790921737906,2025-02-13 11h57.46.027236 -0500,
58,58,0,critical,dhw,45.0,2.1,lower,65.0,65.0,133.0,57.0,57.0,133.0,3,4.209630250930786,None,,,,,0,0,0,0,0,58,58,24,241.9432442188263,,,,,,,,,,,,,,,,,,,,,,,,,,,,,,,,,,,,,,,,,,,,,,,,,,,,,,,,,,,,,,,,,,,,,,,,,,,,,,,,,65.0,65.0,133.0,57.0,57.0,133.0,2.1,2.11,-157,253,0,273,191,-286,241.92791056632996,241.92794513702393,241.9292402267456,241.9432442188263,242.08082675933838,242.08082675933838,242.08082675933838,242.08082675933838,242.08082675933838,242.08082675933838,242.08082675933838,246.16870737075806,3,4.209630250930786,None,,,,,,,,,,,,,,,,,,6,2,2025-02-13_11h54.26.891,comp,2024.2.5,57.093790921737906,2025-02-13 11h57.46.027236 -0500,
59,59,0,critical,dwh,60.0,3.0,lower,55.0,55.0,57.0,133.0,133.0,57.0,2,1.655972957611084,None,,,,,0,0,0,0,0,59,59,68,246.18503332138062,,,,,,,,,,,,,,,,,,,,,,,,,,,,,,,,,,,,,,,,,,,,,,,,,,,,,,,,,,,,,,,,,,,,,,,,,,,,,,,,,55.0,55.0,57.0,133.0,133.0,57.0,3.0,3.1,-190,255,0,5,191,-274,246.170259475708,246.17033743858337,246.1738567352295,246.18503332138062,246.33209705352783,246.33209705352783,246.33209705352783,246.33209705352783,246.33209705352783,246.33209705352783,246.33209705352783,247.8546187877655,2,1.655972957611084,None,,,,,,,,,,,,,,,,,,6,2,2025-02-13_11h54.26.891,comp,2024.2.5,57.093790921737906,2025-02-13 11h57.46.027236 -0500,
60,60,0,filler_square,None,None,None,None,None,None,None,None,None,None,2,4.035987615585327,None,,,,,0,0,0,0,0,60,60,175,247.86975979804993,,,,,,,,,,,,,,,,,,,,,,,,,,,,,,,,,,,,,,,,,,,,,,,,,,,,,,,,,,,,,,,,,,,,,,,,,,,,,,,,,71.12596582507054,57.91859430632187,77.9712454029686,77.9712454029686,76.25018275463796,64.24731342814371,4.0,4.1,-164,-272,0,-19,167,-284,247.85668969154358,247.85676765441895,247.86034393310547,247.86975979804993,248.01368021965027,248.01368021965027,248.01368021965027,248.01368021965027,248.01368021965027,248.01368021965027,248.01368021965027,251.90857362747192,2,4.035987615585327,None,,,,,,,,,,,,,,,,,,6,2,2025-02-13_11h54.26.891,comp,2024.2.5,57.093790921737906,2025-02-13 11h57.46.027236 -0500,
61,61,0,critical,dhw,60.0,1.0,lower,55.0,55.0,133.0,57.0,57.0,133.0,2,3.5288262367248535,None,,,,,0,0,0,0,0,61,61,54,251.92793250083923,,,,,,,,,,,,,,,,,,,,,,,,,,,,,,,,,,,,,,,,,,,,,,,,,,,,,,,,,,,,,,,,,,,,,,,,,,,,,,,,,55.0,55.0,133.0,57.0,57.0,133.0,1.0,1.2,-152,19,0,-5,191,2,251.9101619720459,251.91030168533325,251.91376996040344,251.92793250083923,252.06969285011292,252.06969285011292,252.06969285011292,252.06969285011292,252.06969285011292,252.06969285011292,252.06969285011292,255.4697847366333,2,3.5288262367248535,None,,,,,,,,,,,,,,,,,,6,2,2025-02-13_11h54.26.891,comp,2024.2.5,57.093790921737906,2025-02-13 11h57.46.027236 -0500,
62,62,0,critical,hwd,60.0,4.0,upper,200.0,125.0,125.0,200.0,100.0,100.0,2,3.6029982566833496,None,,,,,0,0,0,0,0,62,62,107,255.48560976982117,,,,,,,,,,,,,,,,,,,,,,,,,,,,,,,,,,,,,,,,,,,,,,,,,,,,,,,,,,,,,,,,,,,,,,,,,,,,,,,,,200.0,125.0,125.0,200.0,100.0,100.0,4.0,4.1,-258,-270,0,17,246,-263,255.47148966789246,255.47157096862793,255.4751431941986,255.48560976982117,255.63533878326416,255.63533878326416,255.63533878326416,255.63533878326416,255.63533878326416,255.63533878326416,255.63533878326416,259.1001069545746,2,3.6029982566833496,None,,,,,,,,,,,,,,,,,,6,2,2025-02-13_11h54.26.891,comp,2024.2.5,57.093790921737906,2025-02-13 11h57.46.027236 -0500,
63,63,0,critical,whd,60.0,2.1,upper,125.0,200.0,200.0,125.0,100.0,100.0,1,1.5571987628936768,None,,,,,0,0,0,0,0,63,63,39,259.116170167923,,,,,,,,,,,,,,,,,,,,,,,,,,,,,,,,,,,,,,,,,,,,,,,,,,,,,,,,,,,,,,,,,,,,,,,,,,,,,,,,,125.0,200.0,200.0,125.0,100.0,100.0,2.1,2.12,-258,-273,0,-288,208,289,259.1017918586731,259.10191893577576,259.10546040534973,259.116170167923,259.2702350616455,259.2702350616455,259.2702350616455,259.2702350616455,259.2702350616455,259.2702350616455,259.2702350616455,260.6790249347687,1,1.5571987628936768,None,,,,,,,,,,,,,,,,,,6,2,2025-02-13_11h54.26.891,comp,2024.2.5,57.093790921737906,2025-02-13 11h57.46.027236 -0500,
64,64,0,filler_random,None,None,None,None,None,None,None,None,None,None,2,0.8408727645874023,None,,,,,0,0,0,0,0,64,64,130,260.6961507797241,,,,,,,,,,,,,,,,,,,,,,,,,,,,,,,,,,,,,,,,,,,,,,,,,,,,,,,,,,,,,,,,,,,,,,,,,,,,,,,,,71.63238613906434,115.1203533860245,131.86397532370827,155.6495534734788,118.64046145561947,77.15142840778347,2.2,2.21,-231,-260,0,269,212,252,260.6809718608856,260.6810505390167,260.6846513748169,260.6961507797241,260.83491230010986,260.83491230010986,260.83491230010986,260.83491230010986,260.83491230010986,260.83491230010986,260.83491230010986,261.5417983531952,2,0.8408727645874023,None,,,,,,,,,,,,,,,,,,6,2,2025-02-13_11h54.26.891,comp,2024.2.5,57.093790921737906,2025-02-13 11h57.46.027236 -0500,
65,65,0,critical,wdh,45.0,1.0,lower,57.0,133.0,65.0,65.0,133.0,57.0,1,1.6828711032867432,None,,,,,0,0,0,0,0,65,65,72,261.5574200153351,,,,,,,,,,,,,,,,,,,,,,,,,,,,,,,,,,,,,,,,,,,,,,,,,,,,,,,,,,,,,,,,,,,,,,,,,,,,,,,,,57.0,133.0,65.0,65.0,133.0,57.0,1.0,1.1,-675,251,-480,282,-323,270,261.543559551239,261.54364013671875,261.5467584133148,261.5574200153351,261.70030522346497,261.70030522346497,261.70030522346497,261.70030522346497,261.70030522346497,261.70030522346497,261.70030522346497,263.25511860847473,1,1.6828711032867432,None,,,,,,,,,,,,,,,,,,6,2,2025-02-13_11h54.26.891,comp,2024.2.5,57.093790921737906,2025-02-13 11h57.46.027236 -0500,
66,66,0,critical,dhw,60.0,4.0,upper,100.0,100.0,200.0,125.0,125.0,200.0,2,0.9443070888519287,None,,,,,0,0,0,0,0,66,66,59,263.2720491886139,,,,,,,,,,,,,,,,,,,,,,,,,,,,,,,,,,,,,,,,,,,,,,,,,,,,,,,,,,,,,,,,,,,,,,,,,,,,,,,,,100.0,100.0,200.0,125.0,125.0,200.0,4.0,4.1,-208,-266,0,8,258,-251,263.2568573951721,263.25693702697754,263.2608871459961,263.2720491886139,263.4203019142151,263.4203019142151,263.4203019142151,263.4203019142151,263.4203019142151,263.4203019142151,263.4203019142151,264.22744488716125,2,0.9443070888519287,None,,,,,,,,,,,,,,,,,,6,2,2025-02-13_11h54.26.891,comp,2024.2.5,57.093790921737906,2025-02-13 11h57.46.027236 -0500,
67,67,0,critical,hwd,60.0,4.0,lower,133.0,57.0,57.0,133.0,55.0,55.0,2,2.290848970413208,None,,,,,0,0,0,0,0,67,67,106,264.2459499835968,,,,,,,,,,,,,,,,,,,,,,,,,,,,,,,,,,,,,,,,,,,,,,,,,,,,,,,,,,,,,,,,,,,,,,,,,,,,,,,,,133.0,57.0,57.0,133.0,55.0,55.0,4.0,4.2,-191,-17,0,-279,190,14,264.2291498184204,264.2292637825012,264.2328064441681,264.2459499835968,264.38831543922424,264.38831543922424,264.38831543922424,264.38831543922424,264.38831543922424,264.38831543922424,264.38831543922424,266.5406382083893,2,2.290848970413208,None,,,,,,,,,,,,,,,,,,6,2,2025-02-13_11h54.26.891,comp,2024.2.5,57.093790921737906,2025-02-13 11h57.46.027236 -0500,
68,68,0,filler_square,None,None,None,None,None,None,None,None,None,None,3,1.344855785369873,None,,,,,0,0,0,0,0,68,68,179,266.55948877334595,,,,,,,,,,,,,,,,,,,,,,,,,,,,,,,,,,,,,,,,,,,,,,,,,,,,,,,,,,,,,,,,,,,,,,,,,,,,,,,,,129.49743437614836,108.89646007103579,104.27800995324074,142.9604926916968,172.7219641016241,172.7219641016241,3.0,3.2,-222,-281,0,-13,254,287,266.543009519577,266.5431430339813,266.5463728904724,266.55948877334595,266.70505142211914,266.70505142211914,266.70505142211914,266.70505142211914,266.70505142211914,266.70505142211914,266.70505142211914,267.9215862751007,3,1.344855785369873,None,,,,,,,,,,,,,,,,,,6,2,2025-02-13_11h54.26.891,comp,2024.2.5,57.093790921737906,2025-02-13 11h57.46.027236 -0500,
69,69,0,filler_random,None,None,None,None,None,None,None,None,None,None,1,1.4555606842041016,None,,,,,0,0,0,0,0,69,69,156,267.9383635520935,,,,,,,,,,,,,,,,,,,,,,,,,,,,,,,,,,,,,,,,,,,,,,,,,,,,,,,,,,,,,,,,,,,,,,,,,,,,,,,,,120.04156896650191,123.57880018715271,57.779850343784915,73.21193202535846,77.94182161302945,137.51877417134213,2.2,2.21,-194,-277,0,279,201,284,267.9235942363739,267.92367339134216,267.92800426483154,267.9383635520935,268.09283113479614,268.09283113479614,268.09283113479614,268.09283113479614,268.09283113479614,268.09283113479614,268.09283113479614,269.40882563591003,1,1.4555606842041016,None,,,,,,,,,,,,,,,,,,6,2,2025-02-13_11h54.26.891,comp,2024.2.5,57.093790921737906,2025-02-13 11h57.46.027236 -0500,
70,70,0,critical,whd,60.0,1.0,lower,57.0,133.0,133.0,57.0,55.0,55.0,1,3.8470842838287354,None,,,,,0,0,0,0,0,70,70,90,269.4251720905304,,,,,,,,,,,,,,,,,,,,,,,,,,,,,,,,,,,,,,,,,,,,,,,,,,,,,,,,,,,,,,,,,,,,,,,,,,,,,,,,,57.0,133.0,133.0,57.0,55.0,55.0,1.0,1.1,-671,270,-480,264,-328,267,269.41077280044556,269.41085386276245,269.4140386581421,269.4251720905304,269.57503390312195,269.57503390312195,269.57503390312195,269.57503390312195,269.57503390312195,269.57503390312195,269.57503390312195,273.27433824539185,1,3.8470842838287354,None,,,,,,,,,,,,,,,,,,6,2,2025-02-13_11h54.26.891,comp,2024.2.5,57.093790921737906,2025-02-13 11h57.46.027236 -0500,
71,71,0,catch,None,None,None,None,None,None,None,None,None,None,1,1.348111867904663,None,,,,,0,0,0,0,0,71,71,123,273.2920458316803,,,,,,,,,,,,,,,,,,,,,,,,,,,,,,,,,,,,,,,,,,,,,,,,,,,,,,,,,,,,,,,,,,,,,,,,,,,,,,,,,166,159,117,73,78,112,4.0,4.1,-212,-265,0,-3,188,-281,273.2765612602234,273.276643037796,273.28026843070984,273.2920458316803,273.4365351200104,273.4365351200104,273.4365351200104,273.4365351200104,273.4365351200104,273.4365351200104,273.4365351200104,274.65768790245056,1,1.348111867904663,None,,,,,,,,,,,,,,,,,,6,2,2025-02-13_11h54.26.891,comp,2024.2.5,57.093790921737906,2025-02-13 11h57.46.027236 -0500,
72,72,0,filler_random,None,None,None,None,None,None,None,None,None,None,2,3.9338912963867188,None,,,,,0,0,0,0,0,72,72,154,274.6747694015503,,,,,,,,,,,,,,,,,,,,,,,,,,,,,,,,,,,,,,,,,,,,,,,,,,,,,,,,,,,,,,,,,,,,,,,,,,,,,,,,,85.18468720471111,82.54282405302968,164.30610595392085,115.35693791270306,57.446428415120266,75.88832615909683,2.1,2.11,-195,284,0,256,192,-262,274.6596522331238,274.6597385406494,274.6635522842407,274.6747694015503,274.82405066490173,274.82405066490173,274.82405066490173,274.82405066490173,274.82405066490173,274.82405066490173,274.82405066490173,278.6109347343445,2,3.9338912963867188,None,,,,,,,,,,,,,,,,,,6,2,2025-02-13_11h54.26.891,comp,2024.2.5,57.093790921737906,2025-02-13 11h57.46.027236 -0500,
73,73,0,critical,whd,60.0,2.1,lower,57.0,133.0,133.0,57.0,55.0,55.0,1,1.7658555507659912,None,,,,,0,0,0,0,0,73,73,38,278.62634444236755,,,,,,,,,,,,,,,,,,,,,,,,,,,,,,,,,,,,,,,,,,,,,,,,,,,,,,,,,,,,,,,,,,,,,,,,,,,,,,,,,57.0,133.0,133.0,57.0,55.0,55.0,2.1,2.12,-191,-252,0,-275,152,252,278.61282086372375,278.61292600631714,278.6166627407074,278.62634444236755,278.77830624580383,278.77830624580383,278.77830624580383,278.77830624580383,278.77830624580383,278.77830624580383,278.77830624580383,280.4084041118622,1,1.7658555507659912,None,,,,,,,,,,,,,,,,,,6,2,2025-02-13_11h54.26.891,comp,2024.2.5,57.093790921737906,2025-02-13 11h57.46.027236 -0500,
74,74,0,filler_random,None,None,None,None,None,None,None,None,None,None,1,1.2874622344970703,None,,,,,0,0,0,0,0,74,74,134,280.42454409599304,,,,,,,,,,,,,,,,,,,,,,,,,,,,,,,,,,,,,,,,,,,,,,,,,,,,,,,,,,,,,,,,,,,,,,,,,,,,,,,,,114.9555344465945,192.24060638606093,146.16667739049169,124.20974068213998,73.56152974713288,108.45685215672802,2.1,2.12,-254,-268,0,-283,212,270,280.410151720047,280.41025376319885,280.4142129421234,280.42454409599304,280.57528805732727,280.57528805732727,280.57528805732727,280.57528805732727,280.57528805732727,280.57528805732727,280.57528805732727,281.7257471084595,1,1.2874622344970703,None,,,,,,,,,,,,,,,,,,6,2,2025-02-13_11h54.26.891,comp,2024.2.5,57.093790921737906,2025-02-13 11h57.46.027236 -0500,
75,75,0,filler_random,None,None,None,None,None,None,None,None,None,None,1,1.649627923965454,None,,,,,0,0,0,0,0,75,75,169,281.74226117134094,,,,,,,,,,,,,,,,,,,,,,,,,,,,,,,,,,,,,,,,,,,,,,,,,,,,,,,,,,,,,,,,,,,,,,,,,,,,,,,,,186.78603993607115,124.980710072909,160.3106344006985,114.72953435648955,151.19966741768917,89.12003698035528,2.2,2.22,-216,285,0,-273,198,-259,281.7275459766388,281.7276246547699,281.7318911552429,281.74226117134094,281.8903560638428,281.8903560638428,281.8903560638428,281.8903560638428,281.8903560638428,281.8903560638428,281.8903560638428,283.40856289863586,1,1.649627923965454,None,,,,,,,,,,,,,,,,,,6,2,2025-02-13_11h54.26.891,comp,2024.2.5,57.093790921737906,2025-02-13 11h57.46.027236 -0500,
76,76,0,critical,dwh,45.0,2.1,lower,65.0,65.0,57.0,133.0,133.0,57.0,2,2.1122145652770996,None,,,,,0,0,0,0,0,76,76,4,283.42527985572815,,,,,,,,,,,,,,,,,,,,,,,,,,,,,,,,,,,,,,,,,,,,,,,,,,,,,,,,,,,,,,,,,,,,,,,,,,,,,,,,,65.0,65.0,57.0,133.0,133.0,57.0,2.1,2.11,-195,276,0,264,191,-270,283.410279750824,283.4103820323944,283.4139709472656,283.42527985572815,283.5737144947052,283.5737144947052,283.5737144947052,283.5737144947052,283.5737144947052,283.5737144947052,283.5737144947052,285.54231452941895,2,2.1122145652770996,None,,,,,,,,,,,,,,,,,,6,2,2025-02-13_11h54.26.891,comp,2024.2.5,57.093790921737906,2025-02-13 11h57.46.027236 -0500,
77,77,0,critical,dwh,45.0,3.0,lower,65.0,65.0,57.0,133.0,133.0,57.0,3,1.3258099555969238,None,,,,,0,0,0,0,0,77,77,62,285.561883687973,,,,,,,,,,,,,,,,,,,,,,,,,,,,,,,,,,,,,,,,,,,,,,,,,,,,,,,,,,,,,,,,,,,,,,,,,,,,,,,,,65.0,65.0,57.0,133.0,133.0,57.0,3.0,3.1,-195,265,0,5,191,-262,285.5438392162323,285.54391717910767,285.54737520217896,285.561883687973,285.7097554206848,285.7097554206848,285.7097554206848,285.7097554206848,285.7097554206848,285.7097554206848,285.7097554206848,286.8930010795593,3,1.3258099555969238,None,,,,,,,,,,,,,,,,,,6,2,2025-02-13_11h54.26.891,comp,2024.2.5,57.093790921737906,2025-02-13 11h57.46.027236 -0500,
78,78,0,filler_random,None,None,None,None,None,None,None,None,None,None,3,1.1654467582702637,None,,,,,0,0,0,0,0,78,78,155,286.9068765640259,,,,,,,,,,,,,,,,,,,,,,,,,,,,,,,,,,,,,,,,,,,,,,,,,,,,,,,,,,,,,,,,,,,,,,,,,,,,,,,,,80.25688275694355,177.45253766236024,140.02815537225456,89.4496335081615,154.03671748617057,187.85043086243618,3.0,3.1,-229,264,0,17,235,-252,286.8936800956726,286.8937089443207,286.89482617378235,286.9068765640259,287.05750727653503,287.05750727653503,287.05750727653503,287.05750727653503,287.05750727653503,287.05750727653503,287.05750727653503,288.07777070999146,3,1.1654467582702637,None,,,,,,,,,,,,,,,,,,6,2,2025-02-13_11h54.26.891,comp,2024.2.5,57.093790921737906,2025-02-13 11h57.46.027236 -0500,
79,79,0,critical,hwd,45.0,3.0,upper,200.0,125.0,125.0,200.0,117.0,117.0,2,1.1532797813415527,None,,,,,0,0,0,0,0,79,79,99,288.0945043563843,,,,,,,,,,,,,,,,,,,,,,,,,,,,,,,,,,,,,,,,,,,,,,,,,,,,,,,,,,,,,,,,,,,,,,,,,,,,,,,,,200.0,125.0,125.0,200.0,117.0,117.0,3.0,3.1,-258,263,0,18,254,-278,288.07935762405396,288.0794358253479,288.08307576179504,288.0945043563843,288.2423210144043,288.2423210144043,288.2423210144043,288.2423210144043,288.2423210144043,288.2423210144043,288.2423210144043,289.26227927207947,2,1.1532797813415527,None,,,,,,,,,,,,,,,,,,6,2,2025-02-13_11h54.26.891,comp,2024.2.5,57.093790921737906,2025-02-13 11h57.46.027236 -0500,
80,80,0,critical,wdh,45.0,4.0,upper,125.0,200.0,117.0,117.0,200.0,125.0,1,1.191377878189087,None,,,,,0,0,0,0,0,80,80,77,289.2809238433838,,,,,,,,,,,,,,,,,,,,,,,,,,,,,,,,,,,,,,,,,,,,,,,,,,,,,,,,,,,,,,,,,,,,,,,,,,,,,,,,,125.0,200.0,117.0,117.0,200.0,125.0,4.0,4.2,-254,19,0,-284,217,-15,289.26392221450806,289.264048576355,289.26774978637695,289.2809238433838,289.4299280643463,289.4299280643463,289.4299280643463,289.4299280643463,289.4299280643463,289.4299280643463,289.4299280643463,290.4768924713135,1,1.191377878189087,None,,,,,,,,,,,,,,,,,,6,2,2025-02-13_11h54.26.891,comp,2024.2.5,57.093790921737906,2025-02-13 11h57.46.027236 -0500,
81,81,0,catch,None,None,None,None,None,None,None,None,None,None,3,0.8745498657226562,None,,,,,0,0,0,0,0,81,81,124,290.49313163757324,,,,,,,,,,,,,,,,,,,,,,,,,,,,,,,,,,,,,,,,,,,,,,,,,,,,,,,,,,,,,,,,,,,,,,,,,,,,,,,,,124,66,94,96,171,154,2.1,2.11,-177,283,0,279,221,-286,290.4788477420807,290.4789273738861,290.4822220802307,290.49313163757324,290.63047313690186,290.63047313690186,290.63047313690186,290.63047313690186,290.63047313690186,290.63047313690186,290.63047313690186,291.3780417442322,3,0.8745498657226562,None,,,,,,,,,,,,,,,,,,6,2,2025-02-13_11h54.26.891,comp,2024.2.5,57.093790921737906,2025-02-13 11h57.46.027236 -0500,
82,82,0,critical,hwd,60.0,3.0,lower,133.0,57.0,57.0,133.0,55.0,55.0,2,1.2452387809753418,None,,,,,0,0,0,0,0,82,82,104,291.39445090293884,,,,,,,,,,,,,,,,,,,,,,,,,,,,,,,,,,,,,,,,,,,,,,,,,,,,,,,,,,,,,,,,,,,,,,,,,,,,,,,,,133.0,57.0,57.0,133.0,55.0,55.0,3.0,3.2,-191,-275,0,-19,190,268,291.3796932697296,291.379771232605,291.38364720344543,291.39445090293884,291.5428214073181,291.5428214073181,291.5428214073181,291.5428214073181,291.5428214073181,291.5428214073181,291.5428214073181,292.65251874923706,2,1.2452387809753418,None,,,,,,,,,,,,,,,,,,6,2,2025-02-13_11h54.26.891,comp,2024.2.5,57.093790921737906,2025-02-13 11h57.46.027236 -0500,
83,83,0,filler_random,None,None,None,None,None,None,None,None,None,None,1,2.6667990684509277,None,,,,,0,0,0,0,0,83,83,145,292.66878032684326,,,,,,,,,,,,,,,,,,,,,,,,,,,,,,,,,,,,,,,,,,,,,,,,,,,,,,,,,,,,,,,,,,,,,,,,,,,,,,,,,134.66627995627712,193.91967268766237,155.74612668743168,169.60036749843,72.45089087911583,158.55642957630567,3.0,3.2,-278,-278,0,-3,260,259,292.6542794704437,292.6543560028076,292.65756154060364,292.66878032684326,292.8172142505646,292.8172142505646,292.8172142505646,292.8172142505646,292.8172142505646,292.8172142505646,292.8172142505646,295.3461766242981,1,2.6667990684509277,None,,,,,,,,,,,,,,,,,,6,2,2025-02-13_11h54.26.891,comp,2024.2.5,57.093790921737906,2025-02-13 11h57.46.027236 -0500,
84,84,0,filler_square,None,None,None,None,None,None,None,None,None,None,1,2.0291125774383545,None,,,,,0,0,0,0,0,84,84,209,295.36336874961853,,,,,,,,,,,,,,,,,,,,,,,,,,,,,,,,,,,,,,,,,,,,,,,,,,,,,,,,,,,,,,,,,,,,,,,,,,,,,,,,,83.48208906659717,83.48208906659717,74.45038645350654,71.4277507715581,63.971947818322185,76.96856452568443,3.0,3.2,-173,-265,0,6,170,260,295.3481421470642,295.3483064174652,295.35256266593933,295.36336874961853,295.50955033302307,295.50955033302307,295.50955033302307,295.50955033302307,295.50955033302307,295.50955033302307,295.50955033302307,297.3970386981964,1,2.0291125774383545,None,,,,,,,,,,,,,,,,,,6,2,2025-02-13_11h54.26.891,comp,2024.2.5,57.093790921737906,2025-02-13 11h57.46.027236 -0500,
85,85,0,critical,dwh,45.0,2.1,upper,117.0,117.0,125.0,200.0,200.0,125.0,2,1.6415021419525146,None,,,,,0,0,0,0,0,85,85,5,297.41444730758667,,,,,,,,,,,,,,,,,,,,,,,,,,,,,,,,,,,,,,,,,,,,,,,,,,,,,,,,,,,,,,,,,,,,,,,,,,,,,,,,,117.0,117.0,125.0,200.0,200.0,125.0,2.1,2.12,-254,-261,0,-284,258,271,297.3985974788666,297.39867758750916,297.4026834964752,297.41444730758667,297.56010580062866,297.56010580062866,297.56010580062866,297.56010580062866,297.56010580062866,297.56010580062866,297.56010580062866,299.06447672843933,2,1.6415021419525146,None,,,,,,,,,,,,,,,,,,6,2,2025-02-13_11h54.26.891,comp,2024.2.5,57.093790921737906,2025-02-13 11h57.46.027236 -0500,
86,86,0,critical,dhw,45.0,3.0,upper,117.0,117.0,200.0,125.0,125.0,200.0,3,1.0460121631622314,None,,,,,0,0,0,0,0,86,86,51,299.0821738243103,,,,,,,,,,,,,,,,,,,,,,,,,,,,,,,,,,,,,,,,,,,,,,,,,,,,,,,,,,,,,,,,,,,,,,,,,,,,,,,,,117.0,117.0,200.0,125.0,125.0,200.0,3.0,3.1,-217,272,0,-4,258,-266,299.0660436153412,299.0661234855652,299.07048773765564,299.0821738243103,299.2300786972046,299.2300786972046,299.2300786972046,299.2300786972046,299.2300786972046,299.2300786972046,299.2300786972046,300.1311752796173,3,1.0460121631622314,None,,,,,,,,,,,,,,,,,,6,2,2025-02-13_11h54.26.891,comp,2024.2.5,57.093790921737906,2025-02-13 11h57.46.027236 -0500,
87,87,0,critical,hdw,60.0,2.1,lower,133.0,57.0,55.0,55.0,57.0,133.0,1,2.2595126628875732,None,,,,,0,0,0,0,0,87,87,46,300.14788818359375,,,,,,,,,,,,,,,,,,,,,,,,,,,,,,,,,,,,,,,,,,,,,,,,,,,,,,,,,,,,,,,,,,,,,,,,,,,,,,,,,133.0,57.0,55.0,55.0,57.0,133.0,2.1,2.12,-152,-290,0,-280,190,262,300.13271498680115,300.1327950954437,300.1370782852173,300.14788818359375,300.29415345191956,300.29415345191956,300.29415345191956,300.29415345191956,300.29415345191956,300.29415345191956,300.29415345191956,302.4277217388153,1,2.2595126628875732,None,,,,,,,,,,,,,,,,,,6,2,2025-02-13_11h54.26.891,comp,2024.2.5,57.093790921737906,2025-02-13 11h57.46.027236 -0500,
88,88,0,critical,whd,45.0,2.1,lower,57.0,133.0,133.0,57.0,65.0,65.0,2,1.8949835300445557,None,,,,,0,0,0,0,0,88,88,12,302.44832968711853,,,,,,,,,,,,,,,,,,,,,,,,,,,,,,,,,,,,,,,,,,,,,,,,,,,,,,,,,,,,,,,,,,,,,,,,,,,,,,,,,57.0,133.0,133.0,57.0,65.0,65.0,2.1,2.11,-191,289,0,285,157,-266,302.42940378189087,302.42953753471375,302.43304204940796,302.44832968711853,302.581538438797,302.581538438797,302.581538438797,302.581538438797,302.581538438797,302.581538438797,302.581538438797,304.35592579841614,2,1.8949835300445557,None,,,,,,,,,,,,,,,,,,6,2,2025-02-13_11h54.26.891,comp,2024.2.5,57.093790921737906,2025-02-13 11h57.46.027236 -0500,
89,89,0,filler_random,None,None,None,None,None,None,None,None,None,None,2,1.9030420780181885,None,,,,,0,0,0,0,0,89,89,153,304.377179145813,,,,,,,,,,,,,,,,,,,,,,,,,,,,,,,,,,,,,,,,,,,,,,,,,,,,,,,,,,,,,,,,,,,,,,,,,,,,,,,,,155.6498668268892,79.88658334098179,87.4812287195159,189.55536571190194,67.46718224997745,159.6635472290419,4.0,4.2,-231,-19,0,-280,271,2,304.3577401638031,304.35787558555603,304.3613259792328,304.377179145813,304.5152609348297,304.5152609348297,304.5152609348297,304.5152609348297,304.5152609348297,304.5152609348297,304.5152609348297,306.28397941589355,2,1.9030420780181885,None,,,,,,,,,,,,,,,,,,6,2,2025-02-13_11h54.26.891,comp,2024.2.5,57.093790921737906,2025-02-13 11h57.46.027236 -0500,
90,90,0,critical,hdw,60.0,2.1,upper,200.0,125.0,100.0,100.0,125.0,200.0,3,1.1862280368804932,None,,,,,0,0,0,0,0,90,90,47,306.3010094165802,,,,,,,,,,,,,,,,,,,,,,,,,,,,,,,,,,,,,,,,,,,,,,,,,,,,,,,,,,,,,,,,,,,,,,,,,,,,,,,,,200.0,125.0,100.0,100.0,125.0,200.0,2.1,2.11,-208,272,0,286,246,-254,306.285728931427,306.2858145236969,306.28994369506836,306.3010094165802,306.44786047935486,306.44786047935486,306.44786047935486,306.44786047935486,306.44786047935486,306.44786047935486,306.44786047935486,307.49855184555054,3,1.1862280368804932,None,,,,,,,,,,,,,,,,,,6,2,2025-02-13_11h54.26.891,comp,2024.2.5,57.093790921737906,2025-02-13 11h57.46.027236 -0500,
91,91,0,filler_square,None,None,None,None,None,None,None,None,None,None,2,1.275540828704834,None,,,,,0,0,0,0,0,91,91,180,307.5162296295166,,,,,,,,,,,,,,,,,,,,,,,,,,,,,,,,,,,,,,,,,,,,,,,,,,,,,,,,,,,,,,,,,,,,,,,,,,,,,,,,,68.37245395045771,87.21016878671489,87.47268863735084,87.47268863735084,60.60499352334479,57.70544121289937,4.0,4.2,-183,6,0,-258,169,-18,307.5006425380707,307.5007326602936,307.5044198036194,307.5162296295166,307.6625452041626,307.6625452041626,307.6625452041626,307.6625452041626,307.6625452041626,307.6625452041626,307.6625452041626,308.79984951019287,2,1.275540828704834,None,,,,,,,,,,,,,,,,,,6,2,2025-02-13_11h54.26.891,comp,2024.2.5,57.093790921737906,2025-02-13 11h57.46.027236 -0500,
92,92,0,filler_square,None,None,None,None,None,None,None,None,None,None,2,0.9189662933349609,None,,,,,0,0,0,0,0,92,92,200,308.8162806034088,,,,,,,,,,,,,,,,,,,,,,,,,,,,,,,,,,,,,,,,,,,,,,,,,,,,,,,,,,,,,,,,,,,,,,,,,,,,,,,,,79.70340661520929,60.14023431149569,83.65709146377395,83.65709146377395,60.194525922134,70.3707402178822,2.1,2.12,-168,-273,0,-264,173,288,308.8017601966858,308.8018412590027,308.8055040836334,308.8162806034088,308.9663906097412,308.9663906097412,308.9663906097412,308.9663906097412,308.9663906097412,308.9663906097412,308.9663906097412,309.75058937072754,2,0.9189662933349609,None,,,,,,,,,,,,,,,,,,6,2,2025-02-13_11h54.26.891,comp,2024.2.5,57.093790921737906,2025-02-13 11h57.46.027236 -0500,
93,93,0,filler_square,None,None,None,None,None,None,None,None,None,None,2,0.8785135746002197,None,,,,,0,0,0,0,0,93,93,191,309.7691824436188,,,,,,,,,,,,,,,,,,,,,,,,,,,,,,,,,,,,,,,,,,,,,,,,,,,,,,,,,,,,,,,,,,,,,,,,,,,,,,,,,160.5777212950644,126.63842656197441,195.15297287766887,195.15297287766887,106.68785330519994,118.38578091285214,4.0,4.1,-257,-267,0,-18,253,-263,309.75244760513306,309.7525236606598,309.7560164928436,309.7691824436188,309.9183530807495,309.9183530807495,309.9183530807495,309.9183530807495,309.9183530807495,309.9183530807495,309.9183530807495,310.6587998867035,2,0.8785135746002197,None,,,,,,,,,,,,,,,,,,6,2,2025-02-13_11h54.26.891,comp,2024.2.5,57.093790921737906,2025-02-13 11h57.46.027236 -0500,
94,94,0,filler_random,None,None,None,None,None,None,None,None,None,None,1,5.758960962295532,None,,,,,0,0,0,0,0,94,94,138,310.68023204803467,,,,,,,,,,,,,,,,,,,,,,,,,,,,,,,,,,,,,,,,,,,,,,,,,,,,,,,,,,,,,,,,,,,,,,,,,,,,,,,,,152.12626259801482,199.53951153428332,190.55690880361854,186.86323321906465,118.05430088404987,78.05623102028534,3.0,3.2,-289,-279,0,17,228,281,310.66074109077454,310.6608200073242,310.6643681526184,310.68023204803467,310.8171043395996,310.8171043395996,310.8171043395996,310.8171043395996,310.8171043395996,310.8171043395996,310.8171043395996,316.4515492916107,1,5.758960962295532,None,,,,,,,,,,,,,,,,,,6,2,2025-02-13_11h54.26.891,comp,2024.2.5,57.093790921737906,2025-02-13 11h57.46.027236 -0500,
95,95,0,filler_random,None,None,None,None,None,None,None,None,None,None,1,1.7313764095306396,None,,,,,0,0,0,0,0,95,95,136,316.46811056137085,,,,,,,,,,,,,,,,,,,,,,,,,,,,,,,,,,,,,,,,,,,,,,,,,,,,,,,,,,,,,,,,,,,,,,,,,,,,,,,,,105.68912841988642,156.5789610517743,60.04859675234392,134.08596020972513,131.6294316509181,132.29094195438785,3.0,3.2,-241,-265,0,-5,229,271,316.453253030777,316.45333647727966,316.4567668437958,316.46811056137085,316.6069145202637,316.6069145202637,316.6069145202637,316.6069145202637,316.6069145202637,316.6069145202637,316.6069145202637,318.2018070220947,1,1.7313764095306396,None,,,,,,,,,,,,,,,,,,6,2,2025-02-13_11h54.26.891,comp,2024.2.5,57.093790921737906,2025-02-13 11h57.46.027236 -0500,
96,96,0,filler_random,None,None,None,None,None,None,None,None,None,None,1,2.73295521736145,None,,,,,0,0,0,0,0,96,96,159,318.2179853916168,,,,,,,,,,,,,,,,,,,,,,,,,,,,,,,,,,,,,,,,,,,,,,,,,,,,,,,,,,,,,,,,,,,,,,,,,,,,,,,,,196.84747671483626,133.29985849470674,150.6573880082932,133.8987792895409,92.05912414057104,121.57881065051572,2.2,2.21,-230,-265,0,280,224,262,318.20353531837463,318.20361375808716,318.2068786621094,318.2179853916168,318.37342858314514,318.37342858314514,318.37342858314514,318.37342858314514,318.37342858314514,318.37342858314514,318.37342858314514,320.96580505371094,1,2.73295521736145,None,,,,,,,,,,,,,,,,,,6,2,2025-02-13_11h54.26.891,comp,2024.2.5,57.093790921737906,2025-02-13 11h57.46.027236 -0500,
97,97,0,filler_random,None,None,None,None,None,None,None,None,None,None,1,4.197622776031494,None,,,,,0,0,0,0,0,97,97,139,320.9857966899872,,,,,,,,,,,,,,,,,,,,,,,,,,,,,,,,,,,,,,,,,,,,,,,,,,,,,,,,,,,,,,,,,,,,,,,,,,,,,,,,,123.9660611355926,145.58080523287924,196.14978719130227,90.03750792790905,72.57340856413518,140.29096130856948,3.0,3.1,-214,261,0,-3,211,-286,320.96753907203674,320.9676203727722,320.97077894210815,320.9857966899872,321.1194887161255,321.1194887161255,321.1194887161255,321.1194887161255,321.1194887161255,321.1194887161255,321.1194887161255,325.1898469924927,1,4.197622776031494,None,,,,,,,,,,,,,,,,,,6,2,2025-02-13_11h54.26.891,comp,2024.2.5,57.093790921737906,2025-02-13 11h57.46.027236 -0500,
98,98,0,critical,hdw,60.0,1.0,upper,200.0,125.0,100.0,100.0,125.0,200.0,1,4.721101760864258,None,,,,,0,0,0,0,0,98,98,115,325.20580887794495,,,,,,,,,,,,,,,,,,,,,,,,,,,,,,,,,,,,,,,,,,,,,,,,,,,,,,,,,,,,,,,,,,,,,,,,,,,,,,,,,200.0,125.0,100.0,100.0,125.0,200.0,1.0,1.2,-208,-4,0,-13,246,9,325.19146633148193,325.19154477119446,325.194940328598,325.20580887794495,325.3559274673462,325.3559274673462,325.3559274673462,325.3559274673462,325.3559274673462,325.3559274673462,325.3559274673462,329.9421751499176,1,4.721101760864258,None,,,,,,,,,,,,,,,,,,6,2,2025-02-13_11h54.26.891,comp,2024.2.5,57.093790921737906,2025-02-13 11h57.46.027236 -0500,
99,99,0,filler_square,None,None,None,None,None,None,None,None,None,None,1,0.9448838233947754,None,,,,,0,0,0,0,0,99,99,184,329.9577534198761,,,,,,,,,,,,,,,,,,,,,,,,,,,,,,,,,,,,,,,,,,,,,,,,,,,,,,,,,,,,,,,,,,,,,,,,,,,,,,,,,176.0508064766663,176.0508064766663,81.34913162217346,68.84393039375489,107.38940829711531,170.3018830786566,3.0,3.2,-218,-270,0,-18,216,282,329.944087266922,329.9441692829132,329.94746494293213,329.9577534198761,330.1065638065338,330.1065638065338,330.1065638065338,330.1065638065338,330.1065638065338,330.1065638065338,330.1065638065338,330.90685749053955,1,0.9448838233947754,None,,,,,,,,,,,,,,,,,,6,2,2025-02-13_11h54.26.891,comp,2024.2.5,57.093790921737906,2025-02-13 11h57.46.027236 -0500,
100,100,0,filler_square,None,None,None,None,None,None,None,None,None,None,1,1.4999818801879883,None,,,,,0,0,0,0,0,100,100,195,330.9229645729065,,,,,,,,,,,,,,,,,,,,,,,,,,,,,,,,,,,,,,,,,,,,,,,,,,,,,,,,,,,,,,,,,,,,,,,,,,,,,,,,,123.12341204979704,123.12341204979704,78.8255312204605,113.58736075843177,74.2484942536066,65.1306964154855,4.0,4.1,-214,-275,0,6,185,-286,330.9087142944336,330.9087927341461,330.91228437423706,330.9229645729065,331.0721411705017,331.0721411705017,331.0721411705017,331.0721411705017,331.0721411705017,331.0721411705017,331.0721411705017,332.4279716014862,1,1.4999818801879883,None,,,,,,,,,,,,,,,,,,6,2,2025-02-13_11h54.26.891,comp,2024.2.5,57.093790921737906,2025-02-13 11h57.46.027236 -0500,
101,101,0,critical,dwh,45.0,2.1,upper,117.0,117.0,125.0,200.0,200.0,125.0,2,0.9440367221832275,None,,,,,0,0,0,0,0,101,101,29,332.4466607570648,,,,,,,,,,,,,,,,,,,,,,,,,,,,,,,,,,,,,,,,,,,,,,,,,,,,,,,,,,,,,,,,,,,,,,,,,,,,,,,,,117.0,117.0,125.0,200.0,200.0,125.0,2.1,2.12,-254,-253,0,-256,258,255,332.42950105667114,332.42958211898804,332.4327173233032,332.4466607570648,332.59027767181396,332.59027767181396,332.59027767181396,332.59027767181396,332.59027767181396,332.59027767181396,332.59027767181396,333.4070601463318,2,0.9440367221832275,None,,,,,,,,,,,,,,,,,,6,2,2025-02-13_11h54.26.891,comp,2024.2.5,57.093790921737906,2025-02-13 11h57.46.027236 -0500,
102,102,0,critical,hdw,45.0,4.0,upper,200.0,125.0,117.0,117.0,125.0,200.0,3,2.4077181816101074,None,,,,,0,0,0,0,0,102,102,113,333.4229817390442,,,,,,,,,,,,,,,,,,,,,,,,,,,,,,,,,,,,,,,,,,,,,,,,,,,,,,,,,,,,,,,,,,,,,,,,,,,,,,,,,200.0,125.0,117.0,117.0,125.0,200.0,4.0,4.1,-217,-272,0,-17,254,-255,333.40877652168274,333.40887475013733,333.41258215904236,333.4229817390442,333.574179649353,333.574179649353,333.574179649353,333.574179649353,333.574179649353,333.574179649353,333.574179649353,335.84015941619873,3,2.4077181816101074,None,,,,,,,,,,,,,,,,,,6,2,2025-02-13_11h54.26.891,comp,2024.2.5,57.093790921737906,2025-02-13 11h57.46.027236 -0500,
103,103,0,critical,hdw,45.0,3.0,lower,133.0,57.0,65.0,65.0,57.0,133.0,1,2.776761531829834,None,,,,,0,0,0,0,0,103,103,110,335.8616142272949,,,,,,,,,,,,,,,,,,,,,,,,,,,,,,,,,,,,,,,,,,,,,,,,,,,,,,,,,,,,,,,,,,,,,,,,,,,,,,,,,133.0,57.0,65.0,65.0,57.0,133.0,3.0,3.2,-157,-259,0,-4,195,273,335.84179043769836,335.84186911582947,335.8456254005432,335.8616142272949,336.00767064094543,336.00767064094543,336.00767064094543,336.00767064094543,336.00767064094543,336.00767064094543,336.00767064094543,338.64167952537537,1,2.776761531829834,None,,,,,,,,,,,,,,,,,,6,2,2025-02-13_11h54.26.891,comp,2024.2.5,57.093790921737906,2025-02-13 11h57.46.027236 -0500,
104,104,0,filler_square,None,None,None,None,None,None,None,None,None,None,3,5.204273462295532,None,,,,,0,0,0,0,0,104,104,181,338.65798711776733,,,,,,,,,,,,,,,,,,,,,,,,,,,,,,,,,,,,,,,,,,,,,,,,,,,,,,,,,,,,,,,,,,,,,,,,,,,,,,,,,64.2766417920545,65.71946168090844,68.5853639097157,63.47434224606005,68.87112635701709,68.87112635701709,3.0,3.1,-161,272,0,1,162,-268,338.6434853076935,338.6435673236847,338.647127866745,338.65798711776733,338.8082661628723,338.8082661628723,338.8082661628723,338.8082661628723,338.8082661628723,338.8082661628723,338.8082661628723,343.87193059921265,3,5.204273462295532,None,,,,,,,,,,,,,,,,,,6,2,2025-02-13_11h54.26.891,comp,2024.2.5,57.093790921737906,2025-02-13 11h57.46.027236 -0500,
105,105,0,critical,hdw,45.0,2.1,upper,200.0,125.0,117.0,117.0,125.0,200.0,3,1.7744758129119873,None,,,,,0,0,0,0,0,105,105,21,343.8884654045105,,,,,,,,,,,,,,,,,,,,,,,,,,,,,,,,,,,,,,,,,,,,,,,,,,,,,,,,,,,,,,,,,,,,,,,,,,,,,,,,,200.0,125.0,117.0,117.0,125.0,200.0,2.1,2.11,-217,281,0,253,254,-269,343.8735132217407,343.87359166145325,343.8767604827881,343.8884654045105,344.0336322784424,344.0336322784424,344.0336322784424,344.0336322784424,344.0336322784424,344.0336322784424,344.0336322784424,345.6776189804077,3,1.7744758129119873,None,,,,,,,,,,,,,,,,,,6,2,2025-02-13_11h54.26.891,comp,2024.2.5,57.093790921737906,2025-02-13 11h57.46.027236 -0500,
106,106,0,critical,dwh,60.0,4.0,lower,55.0,55.0,57.0,133.0,133.0,57.0,2,1.768561840057373,None,,,,,0,0,0,0,0,106,106,70,345.69370913505554,,,,,,,,,,,,,,,,,,,,,,,,,,,,,,,,,,,,,,,,,,,,,,,,,,,,,,,,,,,,,,,,,,,,,,,,,,,,,,,,,55.0,55.0,57.0,133.0,133.0,57.0,4.0,4.2,-190,-8,0,-289,191,1,345.67916083335876,345.67927050590515,345.6825201511383,345.69370913505554,345.84603357315063,345.84603357315063,345.84603357315063,345.84603357315063,345.84603357315063,345.84603357315063,345.84603357315063,347.4778151512146,2,1.768561840057373,None,,,,,,,,,,,,,,,,,,6,2,2025-02-13_11h54.26.891,comp,2024.2.5,57.093790921737906,2025-02-13 11h57.46.027236 -0500,
107,107,0,critical,hdw,60.0,1.0,lower,133.0,57.0,55.0,55.0,57.0,133.0,3,2.384371280670166,None,,,,,0,0,0,0,0,107,107,114,347.49381136894226,,,,,,,,,,,,,,,,,,,,,,,,,,,,,,,,,,,,,,,,,,,,,,,,,,,,,,,,,,,,,,,,,,,,,,,,,,,,,,,,,133.0,57.0,55.0,55.0,57.0,133.0,1.0,1.3,328,-286,480,-277,670,-258,347.4793224334717,347.4794216156006,347.48277759552,347.49381136894226,347.64810395240784,347.64810395240784,347.64810395240784,347.64810395240784,347.64810395240784,347.64810395240784,347.64810395240784,349.8948094844818,3,2.384371280670166,None,,,,,,,,,,,,,,,,,,6,2,2025-02-13_11h54.26.891,comp,2024.2.5,57.093790921737906,2025-02-13 11h57.46.027236 -0500,
108,108,0,filler_random,None,None,None,None,None,None,None,None,None,None,2,2.5829052925109863,None,,,,,0,0,0,0,0,108,108,143,349.91117238998413,,,,,,,,,,,,,,,,,,,,,,,,,,,,,,,,,,,,,,,,,,,,,,,,,,,,,,,,,,,,,,,,,,,,,,,,,,,,,,,,,123.08764205964447,94.67246961085945,147.69022077557372,90.01982868717461,100.96852953414913,101.40503052654404,2.1,2.12,-188,-266,0,-282,192,290,349.8965890407562,349.89666724205017,349.9003438949585,349.91117238998413,350.0650591850281,350.0650591850281,350.0650591850281,350.0650591850281,350.0650591850281,350.0650591850281,350.0650591850281,352.4968454837799,2,2.5829052925109863,None,,,,,,,,,,,,,,,,,,6,2,2025-02-13_11h54.26.891,comp,2024.2.5,57.093790921737906,2025-02-13 11h57.46.027236 -0500,
109,109,0,critical,dwh,45.0,4.0,lower,65.0,65.0,57.0,133.0,133.0,57.0,2,1.1590631008148193,None,,,,,0,0,0,0,0,109,109,64,352.5136308670044,,,,,,,,,,,,,,,,,,,,,,,,,,,,,,,,,,,,,,,,,,,,,,,,,,,,,,,,,,,,,,,,,,,,,,,,,,,,,,,,,65.0,65.0,57.0,133.0,133.0,57.0,4.0,4.1,-195,-275,0,-7,191,-252,352.49837255477905,352.49848914146423,352.50282049179077,352.5136308670044,352.6626601219177,352.6626601219177,352.6626601219177,352.6626601219177,352.6626601219177,352.6626601219177,352.6626601219177,353.67825388908386,2,1.1590631008148193,None,,,,,,,,,,,,,,,,,,6,2,2025-02-13_11h54.26.891,comp,2024.2.5,57.093790921737906,2025-02-13 11h57.46.027236 -0500,
110,110,0,critical,dhw,45.0,3.0,lower,65.0,65.0,133.0,57.0,57.0,133.0,2,1.5998902320861816,None,,,,,0,0,0,0,0,110,110,50,353.6948890686035,,,,,,,,,,,,,,,,,,,,,,,,,,,,,,,,,,,,,,,,,,,,,,,,,,,,,,,,,,,,,,,,,,,,,,,,,,,,,,,,,65.0,65.0,133.0,57.0,57.0,133.0,3.0,3.2,-157,-276,0,9,191,280,353.67983746528625,353.6799178123474,353.68323850631714,353.6948890686035,353.83500599861145,353.83500599861145,353.83500599861145,353.83500599861145,353.83500599861145,353.83500599861145,353.83500599861145,355.2969012260437,2,1.5998902320861816,None,,,,,,,,,,,,,,,,,,6,2,2025-02-13_11h54.26.891,comp,2024.2.5,57.093790921737906,2025-02-13 11h57.46.027236 -0500,
111,111,0,critical,whd,60.0,3.0,upper,125.0,200.0,200.0,125.0,100.0,100.0,1,2.772439956665039,None,,,,,0,0,0,0,0,111,111,93,355.3135063648224,,,,,,,,,,,,,,,,,,,,,,,,,,,,,,,,,,,,,,,,,,,,,,,,,,,,,,,,,,,,,,,,,,,,,,,,,,,,,,,,,125.0,200.0,200.0,125.0,100.0,100.0,3.0,3.1,-258,280,0,7,208,-252,355.29853439331055,355.29861307144165,355.30226397514343,355.3135063648224,355.4608566761017,355.4608566761017,355.4608566761017,355.4608566761017,355.4608566761017,355.4608566761017,355.4608566761017,358.0994071960449,1,2.772439956665039,None,,,,,,,,,,,,,,,,,,6,2,2025-02-13_11h54.26.891,comp,2024.2.5,57.093790921737906,2025-02-13 11h57.46.027236 -0500,
112,112,0,filler_random,None,None,None,None,None,None,None,None,None,None,1,1.2488253116607666,None,,,,,0,0,0,0,0,112,112,150,358.1170127391815,,,,,,,,,,,,,,,,,,,,,,,,,,,,,,,,,,,,,,,,,,,,,,,,,,,,,,,,,,,,,,,,,,,,,,,,,,,,,,,,,192.77132255711354,177.62679537576992,121.9608792724918,75.36602794745069,170.1379004306919,115.82670179296412,2.1,2.12,-222,-270,0,-265,192,252,358.1014657020569,358.1015431880951,358.1052806377411,358.1170127391815,358.26498341560364,358.26498341560364,358.26498341560364,358.26498341560364,358.26498341560364,358.26498341560364,358.26498341560364,359.3833017349243,1,1.2488253116607666,None,,,,,,,,,,,,,,,,,,6,2,2025-02-13_11h54.26.891,comp,2024.2.5,57.093790921737906,2025-02-13 11h57.46.027236 -0500,
113,113,0,critical,dhw,45.0,2.1,lower,65.0,65.0,133.0,57.0,57.0,133.0,3,4.454733848571777,None,,,,,0,0,0,0,0,113,113,0,359.39957547187805,,,,,,,,,,,,,,,,,,,,,,,,,,,,,,,,,,,,,,,,,,,,,,,,,,,,,,,,,,,,,,,,,,,,,,,,,,,,,,,,,65.0,65.0,133.0,57.0,57.0,133.0,2.1,2.11,-157,274,0,285,191,-280,359.38491654396057,359.3849980831146,359.3884243965149,359.39957547187805,359.5476324558258,359.5476324558258,359.5476324558258,359.5476324558258,359.5476324558258,359.5476324558258,359.5476324558258,363.8656213283539,3,4.454733848571777,None,,,,,,,,,,,,,,,,,,6,2,2025-02-13_11h54.26.891,comp,2024.2.5,57.093790921737906,2025-02-13 11h57.46.027236 -0500,
114,114,0,critical,hdw,45.0,2.1,lower,133.0,57.0,65.0,65.0,57.0,133.0,3,4.700207710266113,None,,,,,0,0,0,0,0,114,114,20,363.88210248947144,,,,,,,,,,,,,,,,,,,,,,,,,,,,,,,,,,,,,,,,,,,,,,,,,,,,,,,,,,,,,,,,,,,,,,,,,,,,,,,,,133.0,57.0,65.0,65.0,57.0,133.0,2.1,2.11,-157,282,0,272,195,-271,363.86723828315735,363.8673207759857,363.8710494041443,363.88210248947144,364.0307147502899,364.0307147502899,364.0307147502899,364.0307147502899,364.0307147502899,364.0307147502899,364.0307147502899,368.59324526786804,3,4.700207710266113,None,,,,,,,,,,,,,,,,,,6,2,2025-02-13_11h54.26.891,comp,2024.2.5,57.093790921737906,2025-02-13 11h57.46.027236 -0500,
115,115,0,filler_random,None,None,None,None,None,None,None,None,None,None,1,1.2154412269592285,None,,,,,0,0,0,0,0,115,115,167,368.6146047115326,,,,,,,,,,,,,,,,,,,,,,,,,,,,,,,,,,,,,,,,,,,,,,,,,,,,,,,,,,,,,,,,,,,,,,,,,,,,,,,,,113.32723195106287,161.38634754517778,126.9401679966434,67.70573685379829,58.10516935717157,146.86127929611735,4.0,4.1,-211,-267,0,-12,203,-254,368.59502124786377,368.59516072273254,368.5986306667328,368.6146047115326,368.7497375011444,368.7497375011444,368.7497375011444,368.7497375011444,368.7497375011444,368.7497375011444,368.7497375011444,369.8357923030853,1,1.2154412269592285,None,,,,,,,,,,,,,,,,,,6,2,2025-02-13_11h54.26.891,comp,2024.2.5,57.093790921737906,2025-02-13 11h57.46.027236 -0500,
116,116,0,critical,hwd,45.0,1.0,upper,200.0,125.0,125.0,200.0,117.0,117.0,2,1.5282979011535645,None,,,,,0,0,0,0,0,116,116,97,369.85322642326355,,,,,,,,,,,,,,,,,,,,,,,,,,,,,,,,,,,,,,,,,,,,,,,,,,,,,,,,,,,,,,,,,,,,,,,,,,,,,,,,,200.0,125.0,125.0,200.0,117.0,117.0,1.0,1.1,-738,264,-480,273,-226,265,369.83740854263306,369.83751344680786,369.84116554260254,369.85322642326355,369.9979965686798,369.9979965686798,369.9979965686798,369.9979965686798,369.9979965686798,369.9979965686798,369.9979965686798,371.4000699520111,2,1.5282979011535645,None,,,,,,,,,,,,,,,,,,6,2,2025-02-13_11h54.26.891,comp,2024.2.5,57.093790921737906,2025-02-13 11h57.46.027236 -0500,
117,117,0,filler_square,None,None,None,None,None,None,None,None,None,None,1,9.334838628768921,None,,,,,0,0,0,0,0,117,117,176,371.41647386550903,,,,,,,,,,,,,,,,,,,,,,,,,,,,,,,,,,,,,,,,,,,,,,,,,,,,,,,,,,,,,,,,,,,,,,,,,,,,,,,,,58.06841182763643,58.06841182763643,57.949683144350054,57.12956542180453,57.898682993378046,57.872082758675575,4.0,4.1,-154,-286,0,-11,154,-289,371.4019503593445,371.40202713012695,371.40527415275574,371.41647386550903,371.5556354522705,371.5556354522705,371.5556354522705,371.5556354522705,371.5556354522705,371.5556354522705,371.5556354522705,380.75357484817505,1,9.334838628768921,None,,,,,,,,,,,,,,,,,,6,2,2025-02-13_11h54.26.891,comp,2024.2.5,57.093790921737906,2025-02-13 11h57.46.027236 -0500,
118,118,0,filler_random,None,None,None,None,None,None,None,None,None,None,3,7.947136402130127,None,,,,,0,0,0,0,0,118,118,161,380.77058720588684,,,,,,,,,,,,,,,,,,,,,,,,,,,,,,,,,,,,,,,,,,,,,,,,,,,,,,,,,,,,,,,,,,,,,,,,,,,,,,,,,176.41976750121935,83.11158972606133,136.79709756018207,120.12466230952498,143.5913619661239,136.47915858969995,3.0,3.2,-198,-260,0,-8,224,255,380.75557255744934,380.75566053390503,380.7593905925751,380.77058720588684,380.92132782936096,380.92132782936096,380.92132782936096,380.92132782936096,380.92132782936096,380.92132782936096,380.92132782936096,388.7218334674835,3,7.947136402130127,None,,,,,,,,,,,,,,,,,,6,2,2025-02-13_11h54.26.891,comp,2024.2.5,57.093790921737906,2025-02-13 11h57.46.027236 -0500,
119,119,0,critical,wdh,60.0,2.1,lower,57.0,133.0,55.0,55.0,133.0,57.0,1,3.491990327835083,None,,,,,0,0,0,0,0,119,119,34,388.7382879257202,,,,,,,,,,,,,,,,,,,,,,,,,,,,,,,,,,,,,,,,,,,,,,,,,,,,,,,,,,,,,,,,,,,,,,,,,,,,,,,,,57.0,133.0,55.0,55.0,133.0,57.0,2.1,2.12,-190,-284,0,-262,152,253,388.7235064506531,388.7236359119415,388.7270848751068,388.7382879257202,388.890168428421,388.890168428421,388.890168428421,388.890168428421,388.890168428421,388.890168428421,388.890168428421,392.24156951904297,1,3.491990327835083,None,,,,,,,,,,,,,,,,,,6,2,2025-02-13_11h54.26.891,comp,2024.2.5,57.093790921737906,2025-02-13 11h57.46.027236 -0500,
120,120,0,critical,dhw,60.0,2.1,lower,55.0,55.0,133.0,57.0,57.0,133.0,3,1.2184765338897705,None,,,,,0,0,0,0,0,120,120,2,392.2585241794586,,,,,,,,,,,,,,,,,,,,,,,,,,,,,,,,,,,,,,,,,,,,,,,,,,,,,,,,,,,,,,,,,,,,,,,,,,,,,,,,,55.0,55.0,133.0,57.0,57.0,133.0,2.1,2.12,-152,-288,0,-268,191,286,392.2432789802551,392.2434194087982,392.24771094322205,392.2585241794586,392.40695309638977,392.40695309638977,392.40695309638977,392.40695309638977,392.40695309638977,392.40695309638977,392.40695309638977,393.4907727241516,3,1.2184765338897705,None,,,,,,,,,,,,,,,,,,6,2,2025-02-13_11h54.26.891,comp,2024.2.5,57.093790921737906,2025-02-13 11h57.46.027236 -0500,
121,121,0,catch,None,None,None,None,None,None,None,None,None,None,3,0.8577888011932373,None,,,,,0,0,0,0,0,121,121,122,393.50729393959045,,,,,,,,,,,,,,,,,,,,,,,,,,,,,,,,,,,,,,,,,,,,,,,,,,,,,,,,,,,,,,,,,,,,,,,,,,,,,,,,,84,106,95,95,159,166,4.0,4.2,-196,6,0,-267,226,19,393.49271297454834,393.492787361145,393.4970111846924,393.50729393959045,393.6633291244507,393.6633291244507,393.6633291244507,393.6633291244507,393.6633291244507,393.6633291244507,393.6633291244507,394.37538599967957,3,0.8577888011932373,None,,,,,,,,,,,,,,,,,,6,2,2025-02-13_11h54.26.891,comp,2024.2.5,57.093790921737906,2025-02-13 11h57.46.027236 -0500,
122,122,0,filler_random,None,None,None,None,None,None,None,None,None,None,3,0.7329432964324951,None,,,,,0,0,0,0,0,122,122,157,394.39217805862427,,,,,,,,,,,,,,,,,,,,,,,,,,,,,,,,,,,,,,,,,,,,,,,,,,,,,,,,,,,,,,,,,,,,,,,,,,,,,,,,,121.75601054780782,87.74775609065975,93.5216454896667,130.70959780670086,174.01811424459933,186.38796749577713,2.1,2.12,-205,-256,0,-268,255,253,394.3774092197418,394.37749123573303,394.38129591941833,394.39217805862427,394.54432368278503,394.54432368278503,394.54432368278503,394.54432368278503,394.54432368278503,394.54432368278503,394.54432368278503,395.14171147346497,3,0.7329432964324951,None,,,,,,,,,,,,,,,,,,6,2,2025-02-13_11h54.26.891,comp,2024.2.5,57.093790921737906,2025-02-13 11h57.46.027236 -0500,
123,123,0,critical,whd,60.0,1.0,upper,125.0,200.0,200.0,125.0,100.0,100.0,1,4.439167737960815,None,,,,,0,0,0,0,0,123,123,91,395.15769243240356,,,,,,,,,,,,,,,,,,,,,,,,,,,,,,,,,,,,,,,,,,,,,,,,,,,,,,,,,,,,,,,,,,,,,,,,,,,,,,,,,125.0,200.0,200.0,125.0,100.0,100.0,1.0,1.1,-738,261,-480,281,-272,265,395.1434187889099,395.1435513496399,395.1472473144531,395.15769243240356,395.3132767677307,395.3132767677307,395.3132767677307,395.3132767677307,395.3132767677307,395.3132767677307,395.3132767677307,399.6080467700958,1,4.439167737960815,None,,,,,,,,,,,,,,,,,,6,2,2025-02-13_11h54.26.891,comp,2024.2.5,57.093790921737906,2025-02-13 11h57.46.027236 -0500,
124,124,0,critical,hwd,45.0,1.0,lower,133.0,57.0,57.0,133.0,65.0,65.0,2,2.427997350692749,None,,,,,0,0,0,0,0,124,124,96,399.62528133392334,,,,,,,,,,,,,,,,,,,,,,,,,,,,,,,,,,,,,,,,,,,,,,,,,,,,,,,,,,,,,,,,,,,,,,,,,,,,,,,,,133.0,57.0,57.0,133.0,65.0,65.0,1.0,1.1,-671,257,-480,253,-285,258,399.6095931529999,399.6096730232239,399.6134991645813,399.62528133392334,399.7732684612274,399.7732684612274,399.7732684612274,399.7732684612274,399.7732684612274,399.7732684612274,399.7732684612274,402.0643517971039,2,2.427997350692749,None,,,,,,,,,,,,,,,,,,6,2,2025-02-13_11h54.26.891,comp,2024.2.5,57.093790921737906,2025-02-13 11h57.46.027236 -0500,
125,125,0,critical,wdh,45.0,2.1,lower,57.0,133.0,65.0,65.0,133.0,57.0,1,1.7748899459838867,None,,,,,0,0,0,0,0,125,125,32,402.08630895614624,,,,,,,,,,,,,,,,,,,,,,,,,,,,,,,,,,,,,,,,,,,,,,,,,,,,,,,,,,,,,,,,,,,,,,,,,,,,,,,,,57.0,133.0,65.0,65.0,133.0,57.0,2.1,2.11,-195,263,0,271,157,-260,402.066041469574,402.06615018844604,402.06977367401123,402.08630895614624,402.225350856781,402.225350856781,402.225350856781,402.225350856781,402.225350856781,402.225350856781,402.225350856781,403.866824388504,1,1.7748899459838867,None,,,,,,,,,,,,,,,,,,6,2,2025-02-13_11h54.26.891,comp,2024.2.5,57.093790921737906,2025-02-13 11h57.46.027236 -0500,
126,126,0,filler_square,None,None,None,None,None,None,None,None,None,None,1,1.1461877822875977,None,,,,,0,0,0,0,0,126,126,201,403.882536649704,,,,,,,,,,,,,,,,,,,,,,,,,,,,,,,,,,,,,,,,,,,,,,,,,,,,,,,,,,,,,,,,,,,,,,,,,,,,,,,,,187.9736446254872,187.9736446254872,126.02401109216558,172.71986317614488,178.62558105559734,118.11822356098429,4.0,4.2,-276,6,0,-258,241,-13,403.86864948272705,403.8687286376953,403.87180399894714,403.882536649704,404.0276780128479,404.0276780128479,404.0276780128479,404.0276780128479,404.0276780128479,404.0276780128479,404.0276780128479,405.0439889431,1,1.1461877822875977,None,,,,,,,,,,,,,,,,,,6,2,2025-02-13_11h54.26.891,comp,2024.2.5,57.093790921737906,2025-02-13 11h57.46.027236 -0500,
127,127,0,critical,wdh,45.0,1.0,upper,125.0,200.0,117.0,117.0,200.0,125.0,1,2.0812461376190186,None,,,,,0,0,0,0,0,127,127,73,405.060124874115,,,,,,,,,,,,,,,,,,,,,,,,,,,,,,,,,,,,,,,,,,,,,,,,,,,,,,,,,,,,,,,,,,,,,,,,,,,,,,,,,125.0,200.0,117.0,117.0,200.0,125.0,1.0,1.1,-734,267,-480,267,-263,261,405.04567790031433,405.0457582473755,405.0495309829712,405.060124874115,405.2169044017792,405.2169044017792,405.2169044017792,405.2169044017792,405.2169044017792,405.2169044017792,405.2169044017792,407.1450090408325,1,2.0812461376190186,None,,,,,,,,,,,,,,,,,,6,2,2025-02-13_11h54.26.891,comp,2024.2.5,57.093790921737906,2025-02-13 11h57.46.027236 -0500,
128,128,0,filler_square,None,None,None,None,None,None,None,None,None,None,2,2.4751617908477783,None,,,,,0,0,0,0,0,128,128,206,407.16138076782227,,,,,,,,,,,,,,,,,,,,,,,,,,,,,,,,,,,,,,,,,,,,,,,,,,,,,,,,,,,,,,,,,,,,,,,,,,,,,,,,,129.88725482970347,144.85131329617866,154.23473290132927,154.23473290132927,142.1365866952977,144.03960925372877,1.0,1.3,234,-279,480,-270,725,-256,407.14691376686096,407.14699625968933,407.1505973339081,407.16138076782227,407.31161618232727,407.31161618232727,407.31161618232727,407.31161618232727,407.31161618232727,407.31161618232727,407.31161618232727,409.64842319488525,2,2.4751617908477783,None,,,,,,,,,,,,,,,,,,6,2,2025-02-13_11h54.26.891,comp,2024.2.5,57.093790921737906,2025-02-13 11h57.46.027236 -0500,
129,129,0,critical,dhw,60.0,3.0,lower,55.0,55.0,133.0,57.0,57.0,133.0,2,3.4178285598754883,None,,,,,0,0,0,0,0,129,129,56,409.66670060157776,,,,,,,,,,,,,,,,,,,,,,,,,,,,,,,,,,,,,,,,,,,,,,,,,,,,,,,,,,,,,,,,,,,,,,,,,,,,,,,,,55.0,55.0,133.0,57.0,57.0,133.0,3.0,3.2,-152,-268,0,-9,191,277,409.6502640247345,409.6503484249115,409.6535975933075,409.66670060157776,409.8116879463196,409.8116879463196,409.8116879463196,409.8116879463196,409.8116879463196,409.8116879463196,409.8116879463196,413.0978047847748,2,3.4178285598754883,None,,,,,,,,,,,,,,,,,,6,2,2025-02-13_11h54.26.891,comp,2024.2.5,57.093790921737906,2025-02-13 11h57.46.027236 -0500,
130,130,0,critical,dwh,60.0,2.1,lower,55.0,55.0,57.0,133.0,133.0,57.0,2,1.2588109970092773,None,,,,,0,0,0,0,0,130,130,30,413.1145646572113,,,,,,,,,,,,,,,,,,,,,,,,,,,,,,,,,,,,,,,,,,,,,,,,,,,,,,,,,,,,,,,,,,,,,,,,,,,,,,,,,55.0,55.0,57.0,133.0,133.0,57.0,2.1,2.12,-190,-281,0,-266,191,254,413.0994691848755,413.0995464324951,413.10308504104614,413.1145646572113,413.2630708217621,413.2630708217621,413.2630708217621,413.2630708217621,413.2630708217621,413.2630708217621,413.2630708217621,414.3799889087677,2,1.2588109970092773,None,,,,,,,,,,,,,,,,,,6,2,2025-02-13_11h54.26.891,comp,2024.2.5,57.093790921737906,2025-02-13 11h57.46.027236 -0500,
131,131,0,critical,wdh,60.0,2.1,upper,125.0,200.0,100.0,100.0,200.0,125.0,1,1.6004064083099365,None,,,,,0,0,0,0,0,131,131,11,414.3965382575989,,,,,,,,,,,,,,,,,,,,,,,,,,,,,,,,,,,,,,,,,,,,,,,,,,,,,,,,,,,,,,,,,,,,,,,,,,,,,,,,,125.0,200.0,100.0,100.0,200.0,125.0,2.1,2.11,-246,257,0,284,208,-269,414.3815858364105,414.38166332244873,414.38501739501953,414.3965382575989,414.5469341278076,414.5469341278076,414.5469341278076,414.5469341278076,414.5469341278076,414.5469341278076,414.5469341278076,416.0019612312317,1,1.6004064083099365,None,,,,,,,,,,,,,,,,,,6,2,2025-02-13_11h54.26.891,comp,2024.2.5,57.093790921737906,2025-02-13 11h57.46.027236 -0500,
132,132,0,critical,whd,45.0,2.1,lower,57.0,133.0,133.0,57.0,65.0,65.0,2,2.0063207149505615,None,,,,,0,0,0,0,0,132,132,36,416.0228621959686,,,,,,,,,,,,,,,,,,,,,,,,,,,,,,,,,,,,,,,,,,,,,,,,,,,,,,,,,,,,,,,,,,,,,,,,,,,,,,,,,57.0,133.0,133.0,57.0,65.0,65.0,2.1,2.12,-191,-263,0,-257,157,275,416.00358486175537,416.00368666648865,416.00715923309326,416.0228621959686,416.16485595703125,416.16485595703125,416.16485595703125,416.16485595703125,416.16485595703125,416.16485595703125,416.16485595703125,418.0317714214325,2,2.0063207149505615,None,,,,,,,,,,,,,,,,,,6,2,2025-02-13_11h54.26.891,comp,2024.2.5,57.093790921737906,2025-02-13 11h57.46.027236 -0500,
133,133,0,catch,None,None,None,None,None,None,None,None,None,None,1,1.2354521751403809,None,,,,,0,0,0,0,0,133,133,121,418.04887676239014,,,,,,,,,,,,,,,,,,,,,,,,,,,,,,,,,,,,,,,,,,,,,,,,,,,,,,,,,,,,,,,,,,,,,,,,,,,,,,,,,164,161,131,59,65,125,1.0,1.1,-686,275,-480,280,-292,259,418.03402638435364,418.0341110229492,418.03792357444763,418.04887676239014,418.19806003570557,418.19806003570557,418.19806003570557,418.19806003570557,418.19806003570557,418.19806003570557,418.19806003570557,419.3006098270416,1,1.2354521751403809,None,,,,,,,,,,,,,,,,,,6,2,2025-02-13_11h54.26.891,comp,2024.2.5,57.093790921737906,2025-02-13 11h57.46.027236 -0500,
134,134,0,critical,dwh,45.0,1.0,lower,65.0,65.0,57.0,133.0,133.0,57.0,2,3.1046502590179443,None,,,,,0,0,0,0,0,134,134,60,419.31658244132996,,,,,,,,,,,,,,,,,,,,,,,,,,,,,,,,,,,,,,,,,,,,,,,,,,,,,,,,,,,,,,,,,,,,,,,,,,,,,,,,,65.0,65.0,57.0,133.0,133.0,57.0,1.0,1.1,-675,289,-480,250,-289,286,419.3025813102722,419.30267333984375,419.30618166923523,419.31658244132996,419.4649314880371,419.4649314880371,419.4649314880371,419.4649314880371,419.4649314880371,419.4649314880371,419.4649314880371,422.4293067455292,2,3.1046502590179443,None,,,,,,,,,,,,,,,,,,6,2,2025-02-13_11h54.26.891,comp,2024.2.5,57.093790921737906,2025-02-13 11h57.46.027236 -0500,
135,135,0,critical,dhw,60.0,2.1,upper,100.0,100.0,200.0,125.0,125.0,200.0,2,0.8532512187957764,None,,,,,0,0,0,0,0,135,135,27,422.44694995880127,,,,,,,,,,,,,,,,,,,,,,,,,,,,,,,,,,,,,,,,,,,,,,,,,,,,,,,,,,,,,,,,,,,,,,,,,,,,,,,,,100.0,100.0,200.0,125.0,125.0,200.0,2.1,2.11,-208,264,0,289,258,-277,422.430789232254,422.43086791038513,422.43397307395935,422.44694995880127,422.58272409439087,422.58272409439087,422.58272409439087,422.58272409439087,422.58272409439087,422.58272409439087,422.58272409439087,423.3154683113098,2,0.8532512187957764,None,,,,,,,,,,,,,,,,,,6,2,2025-02-13_11h54.26.891,comp,2024.2.5,57.093790921737906,2025-02-13 11h57.46.027236 -0500,
136,136,0,filler_square,None,None,None,None,None,None,None,None,None,None,3,1.208801507949829,None,,,,,0,0,0,0,0,136,136,205,423.332072019577,,,,,,,,,,,,,,,,,,,,,,,,,,,,,,,,,,,,,,,,,,,,,,,,,,,,,,,,,,,,,,,,,,,,,,,,,,,,,,,,,100.68286972213303,143.63778837953794,69.57183096848256,129.14898546528843,148.94885398867316,148.94885398867316,1.0,1.3,248,-261,480,-290,715,-289,423.31727051734924,423.31734824180603,423.3206491470337,423.332072019577,423.48278975486755,423.48278975486755,423.48278975486755,423.48278975486755,423.48278975486755,423.48278975486755,423.48278975486755,424.54748129844666,3,1.208801507949829,None,,,,,,,,,,,,,,,,,,6,2,2025-02-13_11h54.26.891,comp,2024.2.5,57.093790921737906,2025-02-13 11h57.46.027236 -0500,
137,137,0,critical,hwd,45.0,2.1,lower,133.0,57.0,57.0,133.0,65.0,65.0,1,3.788177728652954,None,,,,,0,0,0,0,0,137,137,40,424.5678493976593,,,,,,,,,,,,,,,,,,,,,,,,,,,,,,,,,,,,,,,,,,,,,,,,,,,,,,,,,,,,,,,,,,,,,,,,,,,,,,,,,133.0,57.0,57.0,133.0,65.0,65.0,2.1,2.11,-191,288,0,287,195,-258,424.54911494255066,424.54926228523254,424.5528755187988,424.5678493976593,424.699809551239,424.699809551239,424.699809551239,424.699809551239,424.699809551239,424.699809551239,424.699809551239,428.36723351478577,1,3.788177728652954,None,,,,,,,,,,,,,,,,,,6,2,2025-02-13_11h54.26.891,comp,2024.2.5,57.093790921737906,2025-02-13 11h57.46.027236 -0500,
138,138,0,critical,whd,45.0,2.1,upper,125.0,200.0,200.0,125.0,117.0,117.0,2,1.0926706790924072,None,,,,,0,0,0,0,0,138,138,13,428.38413166999817,,,,,,,,,,,,,,,,,,,,,,,,,,,,,,,,,,,,,,,,,,,,,,,,,,,,,,,,,,,,,,,,,,,,,,,,,,,,,,,,,125.0,200.0,200.0,125.0,117.0,117.0,2.1,2.12,-258,-255,0,-274,217,282,428.3688130378723,428.36889266967773,428.37250232696533,428.38413166999817,428.5336985588074,428.5336985588074,428.5336985588074,428.5336985588074,428.5336985588074,428.5336985588074,428.5336985588074,429.4849042892456,2,1.0926706790924072,None,,,,,,,,,,,,,,,,,,6,2,2025-02-13_11h54.26.891,comp,2024.2.5,57.093790921737906,2025-02-13 11h57.46.027236 -0500,
139,139,0,critical,wdh,60.0,2.1,upper,125.0,200.0,100.0,100.0,200.0,125.0,1,2.895768642425537,None,,,,,0,0,0,0,0,139,139,35,429.5008065700531,,,,,,,,,,,,,,,,,,,,,,,,,,,,,,,,,,,,,,,,,,,,,,,,,,,,,,,,,,,,,,,,,,,,,,,,,,,,,,,,,125.0,200.0,100.0,100.0,200.0,125.0,2.1,2.11,-246,283,0,260,208,-285,429.4864239692688,429.4865038394928,429.4898750782013,429.5008065700531,429.65180826187134,429.65180826187134,429.65180826187134,429.65180826187134,429.65180826187134,429.65180826187134,429.65180826187134,432.39991068840027,1,2.895768642425537,None,,,,,,,,,,,,,,,,,,6,2,2025-02-13_11h54.26.891,comp,2024.2.5,57.093790921737906,2025-02-13 11h57.46.027236 -0500,
140,140,0,filler_random,None,None,None,None,None,None,None,None,None,None,3,7.948158025741577,None,,,,,0,0,0,0,0,140,140,131,432.4167778491974,,,,,,,,,,,,,,,,,,,,,,,,,,,,,,,,,,,,,,,,,,,,,,,,,,,,,,,,,,,,,,,,,,,,,,,,,,,,,,,,,115.71126035379726,192.60133193671362,158.25708436720163,143.70130161989326,106.25436803296707,171.7778395143161,3.0,3.1,-264,272,0,-19,254,-269,432.401611328125,432.40169072151184,432.4048185348511,432.4167778491974,432.5704779624939,432.5704779624939,432.5704779624939,432.5704779624939,432.5704779624939,432.5704779624939,432.5704779624939,440.37108063697815,3,7.948158025741577,None,,,,,,,,,,,,,,,,,,6,2,2025-02-13_11h54.26.891,comp,2024.2.5,57.093790921737906,2025-02-13 11h57.46.027236 -0500,
