thisN,thisTrialN,thisRepN,effect,order,distance,config,diag,h_1,w_1,h_2,w_2,h_3,w_3,rect_choice.keys,rect_choice.rt,rect_choice.duration,instructions_loop.thisRepN,instructions_loop.thisTrialN,instructions_loop.thisN,instructions_loop.thisIndex,blocks.thisRepN,blocks.thisTrialN,blocks.thisN,blocks.thisIndex,trials.thisRepN,trials.thisTrialN,trials.thisN,trials.thisIndex,thisRow.t,notes,consent.started,agree_button.started,decline_button.started,consent_img.started,mouse.started,consent.stopped,agree_button.numClicks,agree_button.timesOn,agree_button.timesOff,decline_button.numClicks,decline_button.timesOn,decline_button.timesOff,mouse.x,mouse.y,mouse.leftButton,mouse.midButton,mouse.rightButton,mouse.time,mouse.clicked_name,exp_params.started,exp_params.stopped,welcome.started,welcome_text.started,welcome_text.stopped,welcome.stopped,instructions_1.started,instructions_1_text_1.started,instructions_1_text_2.started,key_resp.started,instructions_1.stopped,instructions_loop.key_resp.keys,instructions_loop.key_resp.rt,instructions_loop.key_resp.duration,instructions_2.started,instructions_2_text_1.started,instructions_2_text_2.started,key_resp_2.started,instructions_2.stopped,instructions_loop.key_resp_2.keys,instructions_loop.key_resp_2.rt,instructions_loop.key_resp_2.duration,instructions_3.started,instructions_3_text_1.started,r1_instr3.started,r2_instr3.started,r3_instr3.started,r1_instr3_label.started,r2_instr3_label.started,r3_instr3_label.started,instructions_3_text_3.started,instructions_3_text_4.started,key_resp_3.started,instructions_3.stopped,instructions_loop.key_resp_3.keys,instructions_loop.key_resp_3.rt,instructions_loop.key_resp_3.duration,instructions_4.started,instructions_4_text_1.started,instructions_4_text_3.started,instructions_4_text_2.started,key_resp_4.started,instructions_4.stopped,instructions_loop.key_resp_4.keys,instructions_loop.key_resp_4.rt,instructions_loop.key_resp_4.duration,instructions_5.started,instructions_5_text_1.started,instructions_5_text_2.started,key_resp_5.started,instructions_5.stopped,instructions_loop.key_resp_5.keys,instructions_loop.key_resp_5.rt,instructions_loop.key_resp_5.duration,start_exp.started,start_exp_text.started,key_resp_6.started,start_exp.stopped,key_resp_6.keys,key_resp_6.rt,key_resp_6.duration,h_1_tmp,w_1_tmp,h_2_tmp,w_2_tmp,h_3_tmp,w_3_tmp,config_tmp,config_tmp_1,r_1_x,r_1_y,r_2_x,r_2_y,r_3_x,r_3_y,pre_trial.started,pre_trial.stopped,choice_trial.started,rect_choice.started,r_1.started,r_2.started,r_3.started,r_1_label.started,r_2_label.started,r_3_label.started,prompt.started,choice_trial.stopped,trials.rect_choice.keys,trials.rect_choice.rt,trials.rect_choice.duration,end_block.started,end_block_text.started,end_block.stopped,end.started,end_text.started,key_resp_7.started,end.stopped,key_resp_7.keys,key_resp_7.rt,key_resp_7.duration,debriefing.started,debrief_form.started,end_debrief.started,debriefing.stopped,end_debrief.keys,end_debrief.rt,end_debrief.duration,participant,computer,date,expName,psychopyVersion,frameRate,expStart,
,,,,,,,,,,,,,,,,,,,,,,,,,,,,,,,0.023893117904663086,0.06720185279846191,0.06720185279846191,0.06720185279846191,0.02343893051147461,22.73917317390442,1,[22.670725345611572],[22.670737981796265],0,,,[-73.0],[-506.0],[1],[0],[0],[22.70235586166382],['agree_button'],,,,,,,,,,,,,,,,,,,,,,,,,,,,,,,,,,,,,,,,,,,,,,,,,,,,,,,,,,,,,,,,,,,,,,,,,,,,,,,,,,,,,,,,,,,,,,,,,,,,,,,,,,,,7,5,2025-02-13_11h54.33.183,comp,2024.2.5,61.249045334735214,2025-02-13 11h58.21.121758 -0500,
,,,,,,,,,,,,,,,,,,,,,,,,,,,,,,,,,,,,,,,,,,,,,,,,,,22.739449501037598,22.739482402801514,,,,,,,,,,,,,,,,,,,,,,,,,,,,,,,,,,,,,,,,,,,,,,,,,,,,,,,,,,,,,,,,,,,,,,,,,,,,,,,,,,,,,,,,,,,,,,,,,,,,,,,,,,7,5,2025-02-13_11h54.33.183,comp,2024.2.5,61.249045334735214,2025-02-13 11h58.21.121758 -0500,
,,,,,,,,,,,,,,,,,,,,,,,,,,,,,,,,,,,,,,,,,,,,,,,,,,,,22.73950505256653,22.752946138381958,24.752923250198364,24.736305952072144,,,,,,,,,,,,,,,,,,,,,,,,,,,,,,,,,,,,,,,,,,,,,,,,,,,,,,,,,,,,,,,,,,,,,,,,,,,,,,,,,,,,,,,,,,,,,,,,,,,,,,7,5,2025-02-13_11h54.33.183,comp,2024.2.5,61.249045334735214,2025-02-13 11h58.21.121758 -0500,
0,0,0,,,,,,,,,,,,,,,0,0,0,0,,,,,,,,,24.752923250198364,,,,,,,,,,,,,,,,,,,,,,,,,,,24.736854791641235,24.752923250198364,24.752923250198364,26.252726316452026,29.15454864501953,space,2.8831393718719482,None,29.15465021133423,29.169598817825317,29.169598817825317,30.669602155685425,37.420446157455444,space,6.734774351119995,None,37.420533657073975,37.44247364997864,37.44247364997864,37.44247364997864,37.44247364997864,37.44247364997864,37.44247364997864,37.44247364997864,37.44247364997864,37.44247364997864,38.9197838306427,42.40451264381409,space,3.477323532104492,None,42.40460014343262,42.42004132270813,42.42004132270813,42.42004132270813,43.919450759887695,48.18728423118591,space,4.261430025100708,None,48.187368392944336,48.2029128074646,48.2029128074646,49.702606201171875,54.02022981643677,space,4.30144190788269,None,54.02033829689026,54.035855770111084,54.035855770111084,54.870156049728394,space,0.816899299621582,None,,,,,,,,,,,,,,,,,,,,,,,,,,,,,,,,,,,,,,,,,,,,,,,7,5,2025-02-13_11h54.33.183,comp,2024.2.5,61.249045334735214,2025-02-13 11h58.21.121758 -0500,
0,0,0,critical,whd,45.0,4.0,lower,57.0,133.0,133.0,57.0,65.0,65.0,2,3.7497718334198,None,,,,,0,0,0,0,0,0,0,88,55.00647163391113,,,,,,,,,,,,,,,,,,,,,,,,,,,,,,,,,,,,,,,,,,,,,,,,,,,,,,,,,,,,,,,,,,,,,,,,,,,,,,,,,,57.0,133.0,133.0,57.0,65.0,65.0,4.0,4.2,-191,-14,0,-271,157,-19,54.99293923377991,54.992987871170044,54.99509263038635,55.00647163391113,55.159517765045166,55.159517765045166,55.159517765045166,55.159517765045166,55.159517765045166,55.159517765045166,55.159517765045166,58.77055358886719,2,3.7497718334198,None,,,,,,,,,,,,,,,,,,7,5,2025-02-13_11h54.33.183,comp,2024.2.5,61.249045334735214,2025-02-13 11h58.21.121758 -0500,
1,1,0,critical,hwd,60.0,2.1,lower,133.0,57.0,57.0,133.0,55.0,55.0,1,1.633897066116333,None,,,,,0,0,0,0,0,1,1,42,58.786125898361206,,,,,,,,,,,,,,,,,,,,,,,,,,,,,,,,,,,,,,,,,,,,,,,,,,,,,,,,,,,,,,,,,,,,,,,,,,,,,,,,,,133.0,57.0,57.0,133.0,55.0,55.0,2.1,2.11,-191,252,0,273,190,-288,58.77136445045471,58.77140426635742,58.775028705596924,58.786125898361206,58.935816049575806,58.935816049575806,58.935816049575806,58.935816049575806,58.935816049575806,58.935816049575806,58.935816049575806,60.43701148033142,1,1.633897066116333,None,,,,,,,,,,,,,,,,,,7,5,2025-02-13_11h54.33.183,comp,2024.2.5,61.249045334735214,2025-02-13 11h58.21.121758 -0500,
2,2,0,critical,whd,60.0,2.1,lower,57.0,133.0,133.0,57.0,55.0,55.0,2,4.824904203414917,None,,,,,0,0,0,0,0,2,2,38,60.45237374305725,,,,,,,,,,,,,,,,,,,,,,,,,,,,,,,,,,,,,,,,,,,,,,,,,,,,,,,,,,,,,,,,,,,,,,,,,,,,,,,,,,57.0,133.0,133.0,57.0,55.0,55.0,2.1,2.11,-191,282,0,254,152,-268,60.437795877456665,60.43783378601074,60.44077205657959,60.45237374305725,60.602641582489014,60.602641582489014,60.602641582489014,60.602641582489014,60.602641582489014,60.602641582489014,60.602641582489014,65.28697609901428,2,4.824904203414917,None,,,,,,,,,,,,,,,,,,7,5,2025-02-13_11h54.33.183,comp,2024.2.5,61.249045334735214,2025-02-13 11h58.21.121758 -0500,
3,3,0,critical,dwh,45.0,2.1,lower,65.0,65.0,57.0,133.0,133.0,57.0,2,2.7260069847106934,None,,,,,0,0,0,0,0,3,3,28,65.30263924598694,,,,,,,,,,,,,,,,,,,,,,,,,,,,,,,,,,,,,,,,,,,,,,,,,,,,,,,,,,,,,,,,,,,,,,,,,,,,,,,,,,65.0,65.0,57.0,133.0,133.0,57.0,2.1,2.12,-195,-263,0,-279,191,263,65.28782200813293,65.28786301612854,65.29032635688782,65.30263924598694,65.4523983001709,65.4523983001709,65.4523983001709,65.4523983001709,65.4523983001709,65.4523983001709,65.4523983001709,68.03676652908325,2,2.7260069847106934,None,,,,,,,,,,,,,,,,,,7,5,2025-02-13_11h54.33.183,comp,2024.2.5,61.249045334735214,2025-02-13 11h58.21.121758 -0500,
4,4,0,critical,wdh,45.0,1.0,upper,125.0,200.0,117.0,117.0,200.0,125.0,1,4.327944278717041,None,,,,,0,0,0,0,0,4,4,73,68.05283045768738,,,,,,,,,,,,,,,,,,,,,,,,,,,,,,,,,,,,,,,,,,,,,,,,,,,,,,,,,,,,,,,,,,,,,,,,,,,,,,,,,,125.0,200.0,117.0,117.0,200.0,125.0,1.0,1.2,-254,-1,0,-20,217,16,68.03756618499756,68.03760623931885,68.0400013923645,68.05283045768738,68.20260047912598,68.20260047912598,68.20260047912598,68.20260047912598,68.20260047912598,68.20260047912598,68.20260047912598,72.38730120658875,1,4.327944278717041,None,,,,,,,,,,,,,,,,,,7,5,2025-02-13_11h54.33.183,comp,2024.2.5,61.249045334735214,2025-02-13 11h58.21.121758 -0500,
5,5,0,filler_random,None,None,None,None,None,None,None,None,None,None,2,8.041619300842285,None,,,,,0,0,0,0,0,5,5,135,72.4029221534729,,,,,,,,,,,,,,,,,,,,,,,,,,,,,,,,,,,,,,,,,,,,,,,,,,,,,,,,,,,,,,,,,,,,,,,,,,,,,,,,,,61.34976819755853,61.975878342013516,125.09671606185951,116.8898449658157,68.46684322798521,182.04241002181607,1.0,1.3,295,-280,480,-283,725,-285,72.38824915885925,72.38829183578491,72.39051723480225,72.4029221534729,72.5524091720581,72.5524091720581,72.5524091720581,72.5524091720581,72.5524091720581,72.5524091720581,72.5524091720581,80.4542167186737,2,8.041619300842285,None,,,,,,,,,,,,,,,,,,7,5,2025-02-13_11h54.33.183,comp,2024.2.5,61.249045334735214,2025-02-13 11h58.21.121758 -0500,
6,6,0,filler_square,None,None,None,None,None,None,None,None,None,None,1,3.799016237258911,None,,,,,0,0,0,0,0,6,6,182,80.47025799751282,,,,,,,,,,,,,,,,,,,,,,,,,,,,,,,,,,,,,,,,,,,,,,,,,,,,,,,,,,,,,,,,,,,,,,,,,,,,,,,,,,66.54576032597117,66.54576032597117,63.0884309416956,61.33064449745196,64.87925156503157,58.00952900410076,1.0,1.1,-640,258,-480,269,-324,258,80.45555901527405,80.45567178726196,80.45846056938171,80.47025799751282,80.6188268661499,80.6188268661499,80.6188268661499,80.6188268661499,80.6188268661499,80.6188268661499,80.6188268661499,84.28659439086914,1,3.799016237258911,None,,,,,,,,,,,,,,,,,,7,5,2025-02-13_11h54.33.183,comp,2024.2.5,61.249045334735214,2025-02-13 11h58.21.121758 -0500,
7,7,0,critical,dwh,45.0,4.0,upper,117.0,117.0,125.0,200.0,200.0,125.0,2,1.7102186679840088,None,,,,,0,0,0,0,0,7,7,65,84.30229330062866,,,,,,,,,,,,,,,,,,,,,,,,,,,,,,,,,,,,,,,,,,,,,,,,,,,,,,,,,,,,,,,,,,,,,,,,,,,,,,,,,,117.0,117.0,125.0,200.0,200.0,125.0,4.0,4.1,-254,-278,0,-13,258,-255,84.28742957115173,84.28746938705444,84.28976798057556,84.30229330062866,84.45236039161682,84.45236039161682,84.45236039161682,84.45236039161682,84.45236039161682,84.45236039161682,84.45236039161682,86.0203902721405,2,1.7102186679840088,None,,,,,,,,,,,,,,,,,,7,5,2025-02-13_11h54.33.183,comp,2024.2.5,61.249045334735214,2025-02-13 11h58.21.121758 -0500,
8,8,0,filler_random,None,None,None,None,None,None,None,None,None,None,2,1.4336693286895752,None,,,,,0,0,0,0,0,8,8,151,86.03567123413086,,,,,,,,,,,,,,,,,,,,,,,,,,,,,,,,,,,,,,,,,,,,,,,,,,,,,,,,,,,,,,,,,,,,,,,,,,,,,,,,,,77.75013612812813,61.34829957174682,172.65936753335595,173.60605090417582,169.32294347461198,169.72037180259676,1.0,1.1,-693,272,-480,259,-212,266,86.02132940292358,86.02137231826782,86.02367806434631,86.03567123413086,86.18566107749939,86.18566107749939,86.18566107749939,86.18566107749939,86.18566107749939,86.18566107749939,86.18566107749939,87.4869134426117,2,1.4336693286895752,None,,,,,,,,,,,,,,,,,,7,5,2025-02-13_11h54.33.183,comp,2024.2.5,61.249045334735214,2025-02-13 11h58.21.121758 -0500,
9,9,0,filler_square,None,None,None,None,None,None,None,None,None,None,1,3.6053898334503174,None,,,,,0,0,0,0,0,9,9,206,87.50201797485352,,,,,,,,,,,,,,,,,,,,,,,,,,,,,,,,,,,,,,,,,,,,,,,,,,,,,,,,,,,,,,,,,,,,,,,,,,,,,,,,,,60.44350749205943,60.44350749205943,58.59001025645652,59.83097416486191,58.99440301569758,58.58440780790862,2.1,2.12,-156,-253,0,-276,155,255,87.48789095878601,87.48793244361877,87.49039340019226,87.50201797485352,87.65219783782959,87.65219783782959,87.65219783782959,87.65219783782959,87.65219783782959,87.65219783782959,87.65219783782959,91.11994957923889,1,3.6053898334503174,None,,,,,,,,,,,,,,,,,,7,5,2025-02-13_11h54.33.183,comp,2024.2.5,61.249045334735214,2025-02-13 11h58.21.121758 -0500,
10,10,0,critical,hwd,45.0,3.0,upper,200.0,125.0,125.0,200.0,117.0,117.0,2,2.484492301940918,None,,,,,0,0,0,0,0,10,10,99,91.13531589508057,,,,,,,,,,,,,,,,,,,,,,,,,,,,,,,,,,,,,,,,,,,,,,,,,,,,,,,,,,,,,,,,,,,,,,,,,,,,,,,,,,200.0,125.0,125.0,200.0,117.0,117.0,3.0,3.1,-258,254,0,-3,254,-274,91.12073850631714,91.12077808380127,91.1231894493103,91.13531589508057,91.28563499450684,91.28563499450684,91.28563499450684,91.28563499450684,91.28563499450684,91.28563499450684,91.28563499450684,93.63670873641968,2,2.484492301940918,None,,,,,,,,,,,,,,,,,,7,5,2025-02-13_11h54.33.183,comp,2024.2.5,61.249045334735214,2025-02-13 11h58.21.121758 -0500,
11,11,0,critical,dwh,45.0,2.1,upper,117.0,117.0,125.0,200.0,200.0,125.0,2,1.6392967700958252,None,,,,,0,0,0,0,0,11,11,5,93.65217614173889,,,,,,,,,,,,,,,,,,,,,,,,,,,,,,,,,,,,,,,,,,,,,,,,,,,,,,,,,,,,,,,,,,,,,,,,,,,,,,,,,,117.0,117.0,125.0,200.0,200.0,125.0,2.1,2.12,-254,-258,0,-272,258,272,93.63752603530884,93.6375663280487,93.6409707069397,93.65217614173889,93.80229926109314,93.80229926109314,93.80229926109314,93.80229926109314,93.80229926109314,93.80229926109314,93.80229926109314,95.30371713638306,2,1.6392967700958252,None,,,,,,,,,,,,,,,,,,7,5,2025-02-13_11h54.33.183,comp,2024.2.5,61.249045334735214,2025-02-13 11h58.21.121758 -0500,
12,12,0,filler_square,None,None,None,None,None,None,None,None,None,None,1,1.1007544994354248,None,,,,,0,0,0,0,0,12,12,171,95.3186776638031,,,,,,,,,,,,,,,,,,,,,,,,,,,,,,,,,,,,,,,,,,,,,,,,,,,,,,,,,,,,,,,,,,,,,,,,,,,,,,,,,,139.4062224358566,139.4062224358566,97.22740665373613,129.0697730907739,67.31886175057376,96.01746271668742,3.0,3.2,-230,-277,0,18,209,278,95.30472421646118,95.30476593971252,95.3069589138031,95.3186776638031,95.46888518333435,95.46888518333435,95.46888518333435,95.46888518333435,95.46888518333435,95.46888518333435,95.46888518333435,96.43646764755249,1,1.1007544994354248,None,,,,,,,,,,,,,,,,,,7,5,2025-02-13_11h54.33.183,comp,2024.2.5,61.249045334735214,2025-02-13 11h58.21.121758 -0500,
13,13,0,critical,hdw,45.0,2.1,lower,133.0,57.0,65.0,65.0,57.0,133.0,1,2.2004573345184326,None,,,,,0,0,0,0,0,13,13,20,96.45193409919739,,,,,,,,,,,,,,,,,,,,,,,,,,,,,,,,,,,,,,,,,,,,,,,,,,,,,,,,,,,,,,,,,,,,,,,,,,,,,,,,,,133.0,57.0,65.0,65.0,57.0,133.0,2.1,2.12,-157,-287,0,-277,195,261,96.4372718334198,96.43731331825256,96.43951439857483,96.45193409919739,96.6020519733429,96.6020519733429,96.6020519733429,96.6020519733429,96.6020519733429,96.6020519733429,96.6020519733429,98.66979217529297,1,2.2004573345184326,None,,,,,,,,,,,,,,,,,,7,5,2025-02-13_11h54.33.183,comp,2024.2.5,61.249045334735214,2025-02-13 11h58.21.121758 -0500,
14,14,0,critical,dhw,60.0,1.0,lower,55.0,55.0,133.0,57.0,57.0,133.0,2,1.406212568283081,None,,,,,0,0,0,0,0,14,14,54,98.68508744239807,,,,,,,,,,,,,,,,,,,,,,,,,,,,,,,,,,,,,,,,,,,,,,,,,,,,,,,,,,,,,,,,,,,,,,,,,,,,,,,,,,55.0,55.0,133.0,57.0,57.0,133.0,1.0,1.1,-632,273,-480,267,-289,258,98.67056345939636,98.67060279846191,98.67303800582886,98.68508744239807,98.83538866043091,98.83538866043091,98.83538866043091,98.83538866043091,98.83538866043091,98.83538866043091,98.83538866043091,100.1036262512207,2,1.406212568283081,None,,,,,,,,,,,,,,,,,,7,5,2025-02-13_11h54.33.183,comp,2024.2.5,61.249045334735214,2025-02-13 11h58.21.121758 -0500,
15,15,0,critical,whd,60.0,1.0,upper,125.0,200.0,200.0,125.0,100.0,100.0,1,2.629804849624634,None,,,,,0,0,0,0,0,15,15,91,100.11858367919922,,,,,,,,,,,,,,,,,,,,,,,,,,,,,,,,,,,,,,,,,,,,,,,,,,,,,,,,,,,,,,,,,,,,,,,,,,,,,,,,,,125.0,200.0,200.0,125.0,100.0,100.0,1.0,1.1,-738,283,-480,254,-272,266,100.10440850257874,100.10444974899292,100.10674238204956,100.11858367919922,100.26878786087036,100.26878786087036,100.26878786087036,100.26878786087036,100.26878786087036,100.26878786087036,100.26878786087036,102.75397205352783,1,2.629804849624634,None,,,,,,,,,,,,,,,,,,7,5,2025-02-13_11h54.33.183,comp,2024.2.5,61.249045334735214,2025-02-13 11h58.21.121758 -0500,
16,16,0,critical,hdw,45.0,1.0,lower,133.0,57.0,65.0,65.0,57.0,133.0,1,3.3702754974365234,None,,,,,0,0,0,0,0,16,16,108,102.76974773406982,,,,,,,,,,,,,,,,,,,,,,,,,,,,,,,,,,,,,,,,,,,,,,,,,,,,,,,,,,,,,,,,,,,,,,,,,,,,,,,,,,133.0,57.0,65.0,65.0,57.0,133.0,1.0,1.3,323,-273,480,-264,675,-281,102.75505805015564,102.75511360168457,102.75804448127747,102.76974773406982,102.91859531402588,102.91859531402588,102.91859531402588,102.91859531402588,102.91859531402588,102.91859531402588,102.91859531402588,106.1531572341919,1,3.3702754974365234,None,,,,,,,,,,,,,,,,,,7,5,2025-02-13_11h54.33.183,comp,2024.2.5,61.249045334735214,2025-02-13 11h58.21.121758 -0500,
17,17,0,filler_random,None,None,None,None,None,None,None,None,None,None,2,0.9079620838165283,None,,,,,0,0,0,0,0,17,17,131,106.16847205162048,,,,,,,,,,,,,,,,,,,,,,,,,,,,,,,,,,,,,,,,,,,,,,,,,,,,,,,,,,,,,,,,,,,,,,,,,,,,,,,,,,57.38629141666042,82.47530734709682,158.77538707583506,95.70419583867128,78.92369268467888,73.81401883947001,2.2,2.22,-185,257,0,-259,181,-284,106.1540675163269,106.15410804748535,106.15659499168396,106.16847205162048,106.31856608390808,106.31856608390808,106.31856608390808,106.31856608390808,106.31856608390808,106.31856608390808,106.31856608390808,107.08638596534729,2,0.9079620838165283,None,,,,,,,,,,,,,,,,,,7,5,2025-02-13_11h54.33.183,comp,2024.2.5,61.249045334735214,2025-02-13 11h58.21.121758 -0500,
18,18,0,filler_square,None,None,None,None,None,None,None,None,None,None,3,1.3012151718139648,None,,,,,0,0,0,0,0,18,18,173,107.10206127166748,,,,,,,,,,,,,,,,,,,,,,,,,,,,,,,,,,,,,,,,,,,,,,,,,,,,,,,,,,,,,,,,,,,,,,,,,,,,,,,,,,65.44404255722787,66.67633363240175,61.7386845826876,76.15653606806096,88.87871148830979,88.87871148830979,3.0,3.2,-167,-284,0,5,179,284,107.08736205101013,107.08740305900574,107.08994483947754,107.10206127166748,107.25184917449951,107.25184917449951,107.25184917449951,107.25184917449951,107.25184917449951,107.25184917449951,107.25184917449951,108.41989994049072,3,1.3012151718139648,None,,,,,,,,,,,,,,,,,,7,5,2025-02-13_11h54.33.183,comp,2024.2.5,61.249045334735214,2025-02-13 11h58.21.121758 -0500,
19,19,0,filler_square,None,None,None,None,None,None,None,None,None,None,3,1.1201155185699463,None,,,,,0,0,0,0,0,19,19,183,108.43515372276306,,,,,,,,,,,,,,,,,,,,,,,,,,,,,,,,,,,,,,,,,,,,,,,,,,,,,,,,,,,,,,,,,,,,,,,,,,,,,,,,,,111.99442312674586,72.76598786527887,112.37176951995124,106.27440265499621,158.46010189437192,158.46010189437192,2.2,2.22,-186,280,0,-262,228,-278,108.4208755493164,108.42091631889343,108.4233169555664,108.43515372276306,108.58531785011292,108.58531785011292,108.58531785011292,108.58531785011292,108.58531785011292,108.58531785011292,108.58531785011292,109.56972336769104,3,1.1201155185699463,None,,,,,,,,,,,,,,,,,,7,5,2025-02-13_11h54.33.183,comp,2024.2.5,61.249045334735214,2025-02-13 11h58.21.121758 -0500,
20,20,0,filler_square,None,None,None,None,None,None,None,None,None,None,2,0.811241626739502,None,,,,,0,0,0,0,0,20,20,201,109.58522129058838,,,,,,,,,,,,,,,,,,,,,,,,,,,,,,,,,,,,,,,,,,,,,,,,,,,,,,,,,,,,,,,,,,,,,,,,,,,,,,,,,,80.8694764958073,170.18333011280373,197.46993182060157,197.46993182060157,134.11845128561166,117.11952468637867,4.0,4.1,-280,-277,0,5,253,-281,109.57069230079651,109.57073259353638,109.57410860061646,109.58522129058838,109.73535752296448,109.73535752296448,109.73535752296448,109.73535752296448,109.73535752296448,109.73535752296448,109.73535752296448,110.40364527702332,2,0.811241626739502,None,,,,,,,,,,,,,,,,,,7,5,2025-02-13_11h54.33.183,comp,2024.2.5,61.249045334735214,2025-02-13 11h58.21.121758 -0500,
21,21,0,critical,dhw,45.0,2.1,lower,65.0,65.0,133.0,57.0,57.0,133.0,2,1.400552749633789,None,,,,,0,0,0,0,0,21,21,0,110.41874575614929,,,,,,,,,,,,,,,,,,,,,,,,,,,,,,,,,,,,,,,,,,,,,,,,,,,,,,,,,,,,,,,,,,,,,,,,,,,,,,,,,,65.0,65.0,133.0,57.0,57.0,133.0,2.1,2.11,-157,286,0,263,191,-257,110.40445733070374,110.4044976234436,110.40699243545532,110.41874575614929,110.56856870651245,110.56856870651245,110.56856870651245,110.56856870651245,110.56856870651245,110.56856870651245,110.56856870651245,111.83628511428833,2,1.400552749633789,None,,,,,,,,,,,,,,,,,,7,5,2025-02-13_11h54.33.183,comp,2024.2.5,61.249045334735214,2025-02-13 11h58.21.121758 -0500,
22,22,0,critical,wdh,60.0,4.0,upper,125.0,200.0,100.0,100.0,200.0,125.0,1,1.9764149188995361,None,,,,,0,0,0,0,0,22,22,83,111.85169196128845,,,,,,,,,,,,,,,,,,,,,,,,,,,,,,,,,,,,,,,,,,,,,,,,,,,,,,,,,,,,,,,,,,,,,,,,,,,,,,,,,,125.0,200.0,100.0,100.0,200.0,125.0,4.0,4.1,-246,-283,0,-7,208,-276,111.83719253540039,111.83723258972168,111.83991718292236,111.85169196128845,112.00202941894531,112.00202941894531,112.00202941894531,112.00202941894531,112.00202941894531,112.00202941894531,112.00202941894531,113.83650708198547,1,1.9764149188995361,None,,,,,,,,,,,,,,,,,,7,5,2025-02-13_11h54.33.183,comp,2024.2.5,61.249045334735214,2025-02-13 11h58.21.121758 -0500,
23,23,0,filler_random,None,None,None,None,None,None,None,None,None,None,3,2.7761213779449463,None,,,,,0,0,0,0,0,23,23,136,113.85196447372437,,,,,,,,,,,,,,,,,,,,,,,,,,,,,,,,,,,,,,,,,,,,,,,,,,,,,,,,,,,,,,,,,,,,,,,,,,,,,,,,,,112.61983057998029,149.95768225218947,142.61117174774807,139.48133759859695,197.4804205074869,98.55920024911961,4.0,4.2,-241,-13,0,-255,215,5,113.83743262290955,113.83747506141663,113.84009981155396,113.85196447372437,114.00194263458252,114.00194263458252,114.00194263458252,114.00194263458252,114.00194263458252,114.00194263458252,114.00194263458252,116.63631629943848,3,2.7761213779449463,None,,,,,,,,,,,,,,,,,,7,5,2025-02-13_11h54.33.183,comp,2024.2.5,61.249045334735214,2025-02-13 11h58.21.121758 -0500,
24,24,0,critical,dwh,60.0,2.1,lower,55.0,55.0,57.0,133.0,133.0,57.0,3,1.4658069610595703,None,,,,,0,0,0,0,0,24,24,6,116.65190505981445,,,,,,,,,,,,,,,,,,,,,,,,,,,,,,,,,,,,,,,,,,,,,,,,,,,,,,,,,,,,,,,,,,,,,,,,,,,,,,,,,,55.0,55.0,57.0,133.0,133.0,57.0,2.1,2.11,-190,258,0,269,191,-250,116.63710737228394,116.63714718818665,116.63973736763,116.65190505981445,116.80173516273499,116.80173516273499,116.80173516273499,116.80173516273499,116.80173516273499,116.80173516273499,116.80173516273499,118.11983036994934,3,1.4658069610595703,None,,,,,,,,,,,,,,,,,,7,5,2025-02-13_11h54.33.183,comp,2024.2.5,61.249045334735214,2025-02-13 11h58.21.121758 -0500,
25,25,0,filler_random,None,None,None,None,None,None,None,None,None,None,2,0.9719135761260986,None,,,,,0,0,0,0,0,25,25,167,118.13516569137573,,,,,,,,,,,,,,,,,,,,,,,,,,,,,,,,,,,,,,,,,,,,,,,,,,,,,,,,,,,,,,,,,,,,,,,,,,,,,,,,,,62.056929214845354,81.01061885330371,181.35232386392036,79.76129973022573,99.145759068667,130.6225732567728,1.0,1.2,-176,-18,0,-20,201,9,118.1208643913269,118.12090539932251,118.12319779396057,118.13516569137573,118.28508138656616,118.28508138656616,118.28508138656616,118.28508138656616,118.28508138656616,118.28508138656616,118.28508138656616,119.11975717544556,2,0.9719135761260986,None,,,,,,,,,,,,,,,,,,7,5,2025-02-13_11h54.33.183,comp,2024.2.5,61.249045334735214,2025-02-13 11h58.21.121758 -0500,
26,26,0,catch,None,None,None,None,None,None,None,None,None,None,3,0.9006175994873047,None,,,,,0,0,0,0,0,26,26,120,119.13504385948181,,,,,,,,,,,,,,,,,,,,,,,,,,,,,,,,,,,,,,,,,,,,,,,,,,,,,,,,,,,,,,,,,,,,,,,,,,,,,,,,,,73,117,92,98,190,135,1.0,1.3,276,-254,480,-269,692,-258,119.12082099914551,119.12086248397827,119.12301397323608,119.13504385948181,119.28502798080444,119.28502798080444,119.28502798080444,119.28502798080444,119.28502798080444,119.28502798080444,119.28502798080444,120.05290269851685,3,0.9006175994873047,None,,,,,,,,,,,,,,,,,,7,5,2025-02-13_11h54.33.183,comp,2024.2.5,61.249045334735214,2025-02-13 11h58.21.121758 -0500,
27,27,0,critical,dhw,60.0,2.1,upper,100.0,100.0,200.0,125.0,125.0,200.0,2,1.07139253616333,None,,,,,0,0,0,0,0,27,27,27,120.06830167770386,,,,,,,,,,,,,,,,,,,,,,,,,,,,,,,,,,,,,,,,,,,,,,,,,,,,,,,,,,,,,,,,,,,,,,,,,,,,,,,,,,100.0,100.0,200.0,125.0,125.0,200.0,2.1,2.12,-208,-259,0,-276,258,264,120.05368065834045,120.05371904373169,120.0561580657959,120.06830167770386,120.21853375434875,120.21853375434875,120.21853375434875,120.21853375434875,120.21853375434875,120.21853375434875,120.21853375434875,121.1531412601471,2,1.07139253616333,None,,,,,,,,,,,,,,,,,,7,5,2025-02-13_11h54.33.183,comp,2024.2.5,61.249045334735214,2025-02-13 11h58.21.121758 -0500,
28,28,0,filler_random,None,None,None,None,None,None,None,None,None,None,2,1.2598330974578857,None,,,,,0,0,0,0,0,28,28,160,121.16830205917358,,,,,,,,,,,,,,,,,,,,,,,,,,,,,,,,,,,,,,,,,,,,,,,,,,,,,,,,,,,,,,,,,,,,,,,,,,,,,,,,,,165.02618061161994,147.3848491881357,174.93400189607337,166.38683390759562,154.4043973500991,128.18408762096686,2.1,2.12,-253,-251,0,-259,243,280,121.15411901473999,121.15416216850281,121.15644216537476,121.16830205917358,121.3186047077179,121.3186047077179,121.3186047077179,121.3186047077179,121.3186047077179,121.3186047077179,121.3186047077179,122.43657922744751,2,1.2598330974578857,None,,,,,,,,,,,,,,,,,,7,5,2025-02-13_11h54.33.183,comp,2024.2.5,61.249045334735214,2025-02-13 11h58.21.121758 -0500,
29,29,0,critical,hdw,60.0,1.0,lower,133.0,57.0,55.0,55.0,57.0,133.0,3,2.1836767196655273,None,,,,,0,0,0,0,0,29,29,114,122.45182824134827,,,,,,,,,,,,,,,,,,,,,,,,,,,,,,,,,,,,,,,,,,,,,,,,,,,,,,,,,,,,,,,,,,,,,,,,,,,,,,,,,,133.0,57.0,55.0,55.0,57.0,133.0,1.0,1.1,-632,287,-480,268,-290,283,122.43739795684814,122.43743753433228,122.44019293785095,122.45182824134827,122.60167121887207,122.60167121887207,122.60167121887207,122.60167121887207,122.60167121887207,122.60167121887207,122.60167121887207,124.65296387672424,3,2.1836767196655273,None,,,,,,,,,,,,,,,,,,7,5,2025-02-13_11h54.33.183,comp,2024.2.5,61.249045334735214,2025-02-13 11h58.21.121758 -0500,
30,30,0,catch,None,None,None,None,None,None,None,None,None,None,2,0.854780912399292,None,,,,,0,0,0,0,0,30,30,129,124.66823124885559,,,,,,,,,,,,,,,,,,,,,,,,,,,,,,,,,,,,,,,,,,,,,,,,,,,,,,,,,,,,,,,,,,,,,,,,,,,,,,,,,,120,70,193,132,64,126,2.2,2.21,-197,-260,0,270,225,288,124.65400552749634,124.65404343605042,124.6565158367157,124.66823124885559,124.81838941574097,124.81838941574097,124.81838941574097,124.81838941574097,124.81838941574097,124.81838941574097,124.81838941574097,125.53623390197754,2,0.854780912399292,None,,,,,,,,,,,,,,,,,,7,5,2025-02-13_11h54.33.183,comp,2024.2.5,61.249045334735214,2025-02-13 11h58.21.121758 -0500,
31,31,0,critical,dhw,60.0,4.0,lower,55.0,55.0,133.0,57.0,57.0,133.0,2,1.2121779918670654,None,,,,,0,0,0,0,0,31,31,58,125.55164384841919,,,,,,,,,,,,,,,,,,,,,,,,,,,,,,,,,,,,,,,,,,,,,,,,,,,,,,,,,,,,,,,,,,,,,,,,,,,,,,,,,,55.0,55.0,133.0,57.0,57.0,133.0,4.0,4.2,-152,-7,0,-275,191,-2,125.53702569007874,125.5370671749115,125.53959488868713,125.55164384841919,125.70170998573303,125.70170998573303,125.70170998573303,125.70170998573303,125.70170998573303,125.70170998573303,125.70170998573303,126.7693817615509,2,1.2121779918670654,None,,,,,,,,,,,,,,,,,,7,5,2025-02-13_11h54.33.183,comp,2024.2.5,61.249045334735214,2025-02-13 11h58.21.121758 -0500,
32,32,0,critical,whd,45.0,3.0,lower,57.0,133.0,133.0,57.0,65.0,65.0,2,1.4911177158355713,None,,,,,0,0,0,0,0,32,32,86,126.78503632545471,,,,,,,,,,,,,,,,,,,,,,,,,,,,,,,,,,,,,,,,,,,,,,,,,,,,,,,,,,,,,,,,,,,,,,,,,,,,,,,,,,57.0,133.0,133.0,57.0,65.0,65.0,3.0,3.2,-191,-289,0,-19,157,283,126.77015805244446,126.77019810676575,126.77278137207031,126.78503632545471,126.93497800827026,126.93497800827026,126.93497800827026,126.93497800827026,126.93497800827026,126.93497800827026,126.93497800827026,128.28589487075806,2,1.4911177158355713,None,,,,,,,,,,,,,,,,,,7,5,2025-02-13_11h54.33.183,comp,2024.2.5,61.249045334735214,2025-02-13 11h58.21.121758 -0500,
33,33,0,filler_random,None,None,None,None,None,None,None,None,None,None,2,1.421393632888794,None,,,,,0,0,0,0,0,33,33,158,128.3016607761383,,,,,,,,,,,,,,,,,,,,,,,,,,,,,,,,,,,,,,,,,,,,,,,,,,,,,,,,,,,,,,,,,,,,,,,,,,,,,,,,,,179.24284422785905,99.25359687495813,110.39892553889581,172.06861883888246,110.91849708404109,85.24204764999045,2.1,2.11,-232,267,0,262,225,-282,128.2868320941925,128.28687167167664,128.2892997264862,128.3016607761383,128.45179772377014,128.45179772377014,128.45179772377014,128.45179772377014,128.45179772377014,128.45179772377014,128.45179772377014,129.73613858222961,2,1.421393632888794,None,,,,,,,,,,,,,,,,,,7,5,2025-02-13_11h54.33.183,comp,2024.2.5,61.249045334735214,2025-02-13 11h58.21.121758 -0500,
34,34,0,critical,hdw,45.0,2.1,lower,133.0,57.0,65.0,65.0,57.0,133.0,1,2.2840864658355713,None,,,,,0,0,0,0,0,34,34,44,129.75144124031067,,,,,,,,,,,,,,,,,,,,,,,,,,,,,,,,,,,,,,,,,,,,,,,,,,,,,,,,,,,,,,,,,,,,,,,,,,,,,,,,,,133.0,57.0,65.0,65.0,57.0,133.0,2.1,2.12,-157,-286,0,-263,195,274,129.73692321777344,129.73696303367615,129.73946809768677,129.75144124031067,129.90182280540466,129.90182280540466,129.90182280540466,129.90182280540466,129.90182280540466,129.90182280540466,129.90182280540466,132.05276823043823,1,2.2840864658355713,None,,,,,,,,,,,,,,,,,,7,5,2025-02-13_11h54.33.183,comp,2024.2.5,61.249045334735214,2025-02-13 11h58.21.121758 -0500,
35,35,0,filler_random,None,None,None,None,None,None,None,None,None,None,3,1.5757572650909424,None,,,,,0,0,0,0,0,35,35,159,132.068115234375,,,,,,,,,,,,,,,,,,,,,,,,,,,,,,,,,,,,,,,,,,,,,,,,,,,,,,,,,,,,,,,,,,,,,,,,,,,,,,,,,,182.12232435313496,105.26340319300559,140.79335128062795,89.28568421843596,196.2068050266432,114.20244756420281,3.0,3.1,-193,270,0,1,198,-286,132.05370569229126,132.0537464618683,132.05586981773376,132.068115234375,132.21834874153137,132.21834874153137,132.21834874153137,132.21834874153137,132.21834874153137,132.21834874153137,132.21834874153137,133.65322732925415,3,1.5757572650909424,None,,,,,,,,,,,,,,,,,,7,5,2025-02-13_11h54.33.183,comp,2024.2.5,61.249045334735214,2025-02-13 11h58.21.121758 -0500,
36,36,0,critical,whd,45.0,1.0,upper,125.0,200.0,200.0,125.0,117.0,117.0,1,2.350472927093506,None,,,,,0,0,0,0,0,36,36,85,133.66851711273193,,,,,,,,,,,,,,,,,,,,,,,,,,,,,,,,,,,,,,,,,,,,,,,,,,,,,,,,,,,,,,,,,,,,,,,,,,,,,,,,,,125.0,200.0,200.0,125.0,117.0,117.0,1.0,1.1,-738,260,-480,285,-263,268,133.65421438217163,133.65425539016724,133.65617632865906,133.66851711273193,133.8184061050415,133.8184061050415,133.8184061050415,133.8184061050415,133.8184061050415,133.8184061050415,133.8184061050415,136.03615641593933,1,2.350472927093506,None,,,,,,,,,,,,,,,,,,7,5,2025-02-13_11h54.33.183,comp,2024.2.5,61.249045334735214,2025-02-13 11h58.21.121758 -0500,
37,37,0,critical,whd,60.0,4.0,upper,125.0,200.0,200.0,125.0,100.0,100.0,1,1.6552443504333496,None,,,,,0,0,0,0,0,37,37,95,136.05155992507935,,,,,,,,,,,,,,,,,,,,,,,,,,,,,,,,,,,,,,,,,,,,,,,,,,,,,,,,,,,,,,,,,,,,,,,,,,,,,,,,,,125.0,200.0,200.0,125.0,100.0,100.0,4.0,4.1,-258,-289,0,16,208,-267,136.03695917129517,136.03699946403503,136.0396785736084,136.05155992507935,136.20170950889587,136.20170950889587,136.20170950889587,136.20170950889587,136.20170950889587,136.20170950889587,136.20170950889587,137.71964931488037,1,1.6552443504333496,None,,,,,,,,,,,,,,,,,,7,5,2025-02-13_11h54.33.183,comp,2024.2.5,61.249045334735214,2025-02-13 11h58.21.121758 -0500,
38,38,0,critical,hdw,60.0,4.0,upper,200.0,125.0,100.0,100.0,125.0,200.0,3,1.524977445602417,None,,,,,0,0,0,0,0,38,38,119,137.73473644256592,,,,,,,,,,,,,,,,,,,,,,,,,,,,,,,,,,,,,,,,,,,,,,,,,,,,,,,,,,,,,,,,,,,,,,,,,,,,,,,,,,200.0,125.0,100.0,100.0,125.0,200.0,4.0,4.2,-208,3,0,-285,246,-1,137.72042036056519,137.72046160697937,137.72277164459229,137.73473644256592,137.88485503196716,137.88485503196716,137.88485503196716,137.88485503196716,137.88485503196716,137.88485503196716,137.88485503196716,139.26940655708313,3,1.524977445602417,None,,,,,,,,,,,,,,,,,,7,5,2025-02-13_11h54.33.183,comp,2024.2.5,61.249045334735214,2025-02-13 11h58.21.121758 -0500,
39,39,0,critical,dhw,60.0,1.0,upper,100.0,100.0,200.0,125.0,125.0,200.0,3,2.126830577850342,None,,,,,0,0,0,0,0,39,39,55,139.28493785858154,,,,,,,,,,,,,,,,,,,,,,,,,,,,,,,,,,,,,,,,,,,,,,,,,,,,,,,,,,,,,,,,,,,,,,,,,,,,,,,,,,100.0,100.0,200.0,125.0,125.0,200.0,1.0,1.2,-208,-10,0,12,258,4,139.27019262313843,139.2702338695526,139.27251815795898,139.28493785858154,139.4349491596222,139.4349491596222,139.4349491596222,139.4349491596222,139.4349491596222,139.4349491596222,139.4349491596222,141.41934609413147,3,2.126830577850342,None,,,,,,,,,,,,,,,,,,7,5,2025-02-13_11h54.33.183,comp,2024.2.5,61.249045334735214,2025-02-13 11h58.21.121758 -0500,
40,40,0,filler_random,None,None,None,None,None,None,None,None,None,None,1,1.49849271774292,None,,,,,0,0,0,0,0,40,40,139,141.4348587989807,,,,,,,,,,,,,,,,,,,,,,,,,,,,,,,,,,,,,,,,,,,,,,,,,,,,,,,,,,,,,,,,,,,,,,,,,,,,,,,,,,75.08338935229565,162.08591213175816,93.80769289929259,119.35058202315096,103.96272325323231,71.89609234618787,1.0,1.2,-237,-12,0,-4,192,13,141.4202365875244,141.42027688026428,141.4228253364563,141.4348587989807,141.584796667099,141.584796667099,141.584796667099,141.584796667099,141.584796667099,141.584796667099,141.584796667099,142.93608570098877,1,1.49849271774292,None,,,,,,,,,,,,,,,,,,7,5,2025-02-13_11h54.33.183,comp,2024.2.5,61.249045334735214,2025-02-13 11h58.21.121758 -0500,
41,41,0,filler_square,None,None,None,None,None,None,None,None,None,None,2,0.9502263069152832,None,,,,,0,0,0,0,0,41,41,192,142.95147824287415,,,,,,,,,,,,,,,,,,,,,,,,,,,,,,,,,,,,,,,,,,,,,,,,,,,,,,,,,,,,,,,,,,,,,,,,,,,,,,,,,,117.17818958391742,111.46213924738598,133.65920462380717,133.65920462380717,103.71801092609462,129.51590307887182,2.2,2.21,-219,-272,0,266,228,288,142.9370620250702,142.93710327148438,142.93969130516052,142.95147824287415,143.10152101516724,143.10152101516724,143.10152101516724,143.10152101516724,143.10152101516724,143.10152101516724,143.10152101516724,143.90298438072205,2,0.9502263069152832,None,,,,,,,,,,,,,,,,,,7,5,2025-02-13_11h54.33.183,comp,2024.2.5,61.249045334735214,2025-02-13 11h58.21.121758 -0500,
42,42,0,critical,hdw,45.0,4.0,lower,133.0,57.0,65.0,65.0,57.0,133.0,1,1.645150899887085,None,,,,,0,0,0,0,0,42,42,112,143.91826581954956,,,,,,,,,,,,,,,,,,,,,,,,,,,,,,,,,,,,,,,,,,,,,,,,,,,,,,,,,,,,,,,,,,,,,,,,,,,,,,,,,,133.0,57.0,65.0,65.0,57.0,133.0,4.0,4.2,-157,-1,0,-279,195,-11,143.90373039245605,143.90377020835876,143.90586137771606,143.91826581954956,144.0680549144745,144.0680549144745,144.0680549144745,144.0680549144745,144.0680549144745,144.0680549144745,144.0680549144745,145.5699064731598,1,1.645150899887085,None,,,,,,,,,,,,,,,,,,7,5,2025-02-13_11h54.33.183,comp,2024.2.5,61.249045334735214,2025-02-13 11h58.21.121758 -0500,
43,43,0,filler_square,None,None,None,None,None,None,None,None,None,None,1,0.8664827346801758,None,,,,,0,0,0,0,0,43,43,191,145.5854160785675,,,,,,,,,,,,,,,,,,,,,,,,,,,,,,,,,,,,,,,,,,,,,,,,,,,,,,,,,,,,,,,,,,,,,,,,,,,,,,,,,,171.49301327313958,171.49301327313958,161.05730142135354,89.14211328315481,62.19906200911754,121.61639775711232,3.0,3.2,-226,-267,0,-20,201,274,145.57099413871765,145.57103061676025,145.57281517982483,145.5854160785675,145.73541617393494,145.73541617393494,145.73541617393494,145.73541617393494,145.73541617393494,145.73541617393494,145.73541617393494,146.46936583518982,1,0.8664827346801758,None,,,,,,,,,,,,,,,,,,7,5,2025-02-13_11h54.33.183,comp,2024.2.5,61.249045334735214,2025-02-13 11h58.21.121758 -0500,
44,44,0,critical,dwh,60.0,2.1,upper,100.0,100.0,125.0,200.0,200.0,125.0,2,3.318014144897461,None,,,,,0,0,0,0,0,44,44,31,146.48467803001404,,,,,,,,,,,,,,,,,,,,,,,,,,,,,,,,,,,,,,,,,,,,,,,,,,,,,,,,,,,,,,,,,,,,,,,,,,,,,,,,,,100.0,100.0,125.0,200.0,200.0,125.0,2.1,2.11,-246,270,0,268,258,-261,146.47022461891174,146.47026896476746,146.47234916687012,146.48467803001404,146.6348831653595,146.6348831653595,146.6348831653595,146.6348831653595,146.6348831653595,146.6348831653595,146.6348831653595,149.8192777633667,2,3.318014144897461,None,,,,,,,,,,,,,,,,,,7,5,2025-02-13_11h54.33.183,comp,2024.2.5,61.249045334735214,2025-02-13 11h58.21.121758 -0500,
45,45,0,critical,wdh,60.0,2.1,upper,125.0,200.0,100.0,100.0,200.0,125.0,1,1.6504402160644531,None,,,,,0,0,0,0,0,45,45,35,149.83459877967834,,,,,,,,,,,,,,,,,,,,,,,,,,,,,,,,,,,,,,,,,,,,,,,,,,,,,,,,,,,,,,,,,,,,,,,,,,,,,,,,,,125.0,200.0,100.0,100.0,200.0,125.0,2.1,2.11,-246,254,0,267,208,-287,149.8200807571411,149.8201208114624,149.822265625,149.83459877967834,149.98495268821716,149.98495268821716,149.98495268821716,149.98495268821716,149.98495268821716,149.98495268821716,149.98495268821716,151.50256490707397,1,1.6504402160644531,None,,,,,,,,,,,,,,,,,,7,5,2025-02-13_11h54.33.183,comp,2024.2.5,61.249045334735214,2025-02-13 11h58.21.121758 -0500,
46,46,0,critical,hdw,45.0,4.0,upper,200.0,125.0,117.0,117.0,125.0,200.0,1,1.4616351127624512,None,,,,,0,0,0,0,0,46,46,113,151.51788067817688,,,,,,,,,,,,,,,,,,,,,,,,,,,,,,,,,,,,,,,,,,,,,,,,,,,,,,,,,,,,,,,,,,,,,,,,,,,,,,,,,,200.0,125.0,117.0,117.0,125.0,200.0,4.0,4.1,-217,-269,0,-19,254,-267,151.50338530540466,151.5034248828888,151.50565218925476,151.51788067817688,151.66801643371582,151.66801643371582,151.66801643371582,151.66801643371582,151.66801643371582,151.66801643371582,151.66801643371582,152.9859437942505,1,1.4616351127624512,None,,,,,,,,,,,,,,,,,,7,5,2025-02-13_11h54.33.183,comp,2024.2.5,61.249045334735214,2025-02-13 11h58.21.121758 -0500,
47,47,0,critical,hwd,60.0,4.0,lower,133.0,57.0,57.0,133.0,55.0,55.0,1,1.0667030811309814,None,,,,,0,0,0,0,0,47,47,106,153.0014147758484,,,,,,,,,,,,,,,,,,,,,,,,,,,,,,,,,,,,,,,,,,,,,,,,,,,,,,,,,,,,,,,,,,,,,,,,,,,,,,,,,,133.0,57.0,57.0,133.0,55.0,55.0,4.0,4.1,-191,-266,0,17,190,-268,152.98676109313965,152.9868016242981,152.98928809165955,153.0014147758484,153.15136647224426,153.15136647224426,153.15136647224426,153.15136647224426,153.15136647224426,153.15136647224426,153.15136647224426,154.08572101593018,1,1.0667030811309814,None,,,,,,,,,,,,,,,,,,7,5,2025-02-13_11h54.33.183,comp,2024.2.5,61.249045334735214,2025-02-13 11h58.21.121758 -0500,
48,48,0,critical,dhw,60.0,3.0,lower,55.0,55.0,133.0,57.0,57.0,133.0,2,1.0054612159729004,None,,,,,0,0,0,0,0,48,48,56,154.10104393959045,,,,,,,,,,,,,,,,,,,,,,,,,,,,,,,,,,,,,,,,,,,,,,,,,,,,,,,,,,,,,,,,,,,,,,,,,,,,,,,,,,55.0,55.0,133.0,57.0,57.0,133.0,3.0,3.2,-152,-277,0,-16,191,251,154.0864713191986,154.08651089668274,154.08887219429016,154.10104393959045,154.25118350982666,154.25118350982666,154.25118350982666,154.25118350982666,154.25118350982666,154.25118350982666,154.25118350982666,155.11910343170166,2,1.0054612159729004,None,,,,,,,,,,,,,,,,,,7,5,2025-02-13_11h54.33.183,comp,2024.2.5,61.249045334735214,2025-02-13 11h58.21.121758 -0500,
49,49,0,critical,hwd,60.0,1.0,lower,133.0,57.0,57.0,133.0,55.0,55.0,1,1.1169307231903076,None,,,,,0,0,0,0,0,49,49,102,155.13454270362854,,,,,,,,,,,,,,,,,,,,,,,,,,,,,,,,,,,,,,,,,,,,,,,,,,,,,,,,,,,,,,,,,,,,,,,,,,,,,,,,,,133.0,57.0,57.0,133.0,55.0,55.0,1.0,1.3,289,-273,480,-254,670,-252,155.11993050575256,155.11997032165527,155.1225712299347,155.13454270362854,155.28467535972595,155.28467535972595,155.28467535972595,155.28467535972595,155.28467535972595,155.28467535972595,155.28467535972595,156.25258684158325,1,1.1169307231903076,None,,,,,,,,,,,,,,,,,,7,5,2025-02-13_11h54.33.183,comp,2024.2.5,61.249045334735214,2025-02-13 11h58.21.121758 -0500,
50,50,0,critical,hwd,45.0,3.0,lower,133.0,57.0,57.0,133.0,65.0,65.0,1,0.9116866588592529,None,,,,,0,0,0,0,0,50,50,98,156.26804518699646,,,,,,,,,,,,,,,,,,,,,,,,,,,,,,,,,,,,,,,,,,,,,,,,,,,,,,,,,,,,,,,,,,,,,,,,,,,,,,,,,,133.0,57.0,57.0,133.0,65.0,65.0,3.0,3.1,-191,288,0,-4,195,-267,156.25340056419373,156.25344347953796,156.2560522556305,156.26804518699646,156.41791701316833,156.41791701316833,156.41791701316833,156.41791701316833,156.41791701316833,156.41791701316833,156.41791701316833,157.1857190132141,1,0.9116866588592529,None,,,,,,,,,,,,,,,,,,7,5,2025-02-13_11h54.33.183,comp,2024.2.5,61.249045334735214,2025-02-13 11h58.21.121758 -0500,
51,51,0,critical,hdw,60.0,2.1,lower,133.0,57.0,55.0,55.0,57.0,133.0,1,1.1326415538787842,None,,,,,0,0,0,0,0,51,51,22,157.20123028755188,,,,,,,,,,,,,,,,,,,,,,,,,,,,,,,,,,,,,,,,,,,,,,,,,,,,,,,,,,,,,,,,,,,,,,,,,,,,,,,,,,133.0,57.0,55.0,55.0,57.0,133.0,2.1,2.11,-152,274,0,276,190,-261,157.1864845752716,157.18652629852295,157.1888828277588,157.20123028755188,157.3511507511139,157.3511507511139,157.3511507511139,157.3511507511139,157.3511507511139,157.3511507511139,157.3511507511139,158.35231852531433,1,1.1326415538787842,None,,,,,,,,,,,,,,,,,,7,5,2025-02-13_11h54.33.183,comp,2024.2.5,61.249045334735214,2025-02-13 11h58.21.121758 -0500,
52,52,0,critical,hwd,45.0,1.0,upper,200.0,125.0,125.0,200.0,117.0,117.0,2,1.8511159420013428,None,,,,,0,0,0,0,0,52,52,97,158.36767506599426,,,,,,,,,,,,,,,,,,,,,,,,,,,,,,,,,,,,,,,,,,,,,,,,,,,,,,,,,,,,,,,,,,,,,,,,,,,,,,,,,,200.0,125.0,125.0,200.0,117.0,117.0,1.0,1.1,-738,283,-480,283,-226,251,158.35313534736633,158.35317540168762,158.35576462745667,158.36767506599426,158.51806092262268,158.51806092262268,158.51806092262268,158.51806092262268,158.51806092262268,158.51806092262268,158.51806092262268,160.23585104942322,2,1.8511159420013428,None,,,,,,,,,,,,,,,,,,7,5,2025-02-13_11h54.33.183,comp,2024.2.5,61.249045334735214,2025-02-13 11h58.21.121758 -0500,
53,53,0,filler_random,None,None,None,None,None,None,None,None,None,None,3,0.8661837577819824,None,,,,,0,0,0,0,0,53,53,153,160.25117683410645,,,,,,,,,,,,,,,,,,,,,,,,,,,,,,,,,,,,,,,,,,,,,,,,,,,,,,,,,,,,,,,,,,,,,,,,,,,,,,,,,,123.40823842440221,130.50574086692654,92.51963796359837,60.349408475342095,182.45447682015174,191.29126712287203,3.0,3.2,-191,-259,0,-13,222,256,160.23676753044128,160.23680782318115,160.23895525932312,160.25117683410645,160.4014995098114,160.4014995098114,160.4014995098114,160.4014995098114,160.4014995098114,160.4014995098114,160.4014995098114,161.13574266433716,3,0.8661837577819824,None,,,,,,,,,,,,,,,,,,7,5,2025-02-13_11h54.33.183,comp,2024.2.5,61.249045334735214,2025-02-13 11h58.21.121758 -0500,
54,54,0,filler_square,None,None,None,None,None,None,None,None,None,None,3,2.0512964725494385,None,,,,,0,0,0,0,0,54,54,179,161.15132331848145,,,,,,,,,,,,,,,,,,,,,,,,,,,,,,,,,,,,,,,,,,,,,,,,,,,,,,,,,,,,,,,,,,,,,,,,,,,,,,,,,,114.93135004362128,78.88623451723639,77.71606284824401,88.93536039793229,118.36645382216318,118.36645382216318,2.1,2.12,-180,-278,0,-267,200,277,161.13674211502075,161.13678336143494,161.14009404182434,161.15132331848145,161.30127239227295,161.30127239227295,161.30127239227295,161.30127239227295,161.30127239227295,161.30127239227295,161.30127239227295,163.218994140625,3,2.0512964725494385,None,,,,,,,,,,,,,,,,,,7,5,2025-02-13_11h54.33.183,comp,2024.2.5,61.249045334735214,2025-02-13 11h58.21.121758 -0500,
55,55,0,critical,dwh,45.0,1.0,upper,117.0,117.0,125.0,200.0,200.0,125.0,3,0.9137227535247803,None,,,,,0,0,0,0,0,55,55,61,163.23439145088196,,,,,,,,,,,,,,,,,,,,,,,,,,,,,,,,,,,,,,,,,,,,,,,,,,,,,,,,,,,,,,,,,,,,,,,,,,,,,,,,,,117.0,117.0,125.0,200.0,200.0,125.0,1.0,1.1,-734,268,-480,283,-222,251,163.2197949886322,163.2198350429535,163.22283959388733,163.23439145088196,163.38467049598694,163.38467049598694,163.38467049598694,163.38467049598694,163.38467049598694,163.38467049598694,163.38467049598694,164.1526701450348,3,0.9137227535247803,None,,,,,,,,,,,,,,,,,,7,5,2025-02-13_11h54.33.183,comp,2024.2.5,61.249045334735214,2025-02-13 11h58.21.121758 -0500,
56,56,0,critical,wdh,60.0,3.0,lower,57.0,133.0,55.0,55.0,133.0,57.0,3,1.6596252918243408,None,,,,,0,0,0,0,0,56,56,80,164.16781902313232,,,,,,,,,,,,,,,,,,,,,,,,,,,,,,,,,,,,,,,,,,,,,,,,,,,,,,,,,,,,,,,,,,,,,,,,,,,,,,,,,,57.0,133.0,55.0,55.0,133.0,57.0,3.0,3.1,-190,259,0,-12,152,-272,164.15342330932617,164.153461933136,164.15558695793152,164.16781902313232,164.31770300865173,164.31770300865173,164.31770300865173,164.31770300865173,164.31770300865173,164.31770300865173,164.31770300865173,165.83565711975098,3,1.6596252918243408,None,,,,,,,,,,,,,,,,,,7,5,2025-02-13_11h54.33.183,comp,2024.2.5,61.249045334735214,2025-02-13 11h58.21.121758 -0500,
57,57,0,critical,dwh,60.0,3.0,upper,100.0,100.0,125.0,200.0,200.0,125.0,2,0.9034504890441895,None,,,,,0,0,0,0,0,57,57,69,165.851215839386,,,,,,,,,,,,,,,,,,,,,,,,,,,,,,,,,,,,,,,,,,,,,,,,,,,,,,,,,,,,,,,,,,,,,,,,,,,,,,,,,,100.0,100.0,125.0,200.0,200.0,125.0,3.0,3.1,-246,262,0,2,258,-284,165.836434841156,165.8364760875702,165.83885431289673,165.851215839386,166.00134873390198,166.00134873390198,166.00134873390198,166.00134873390198,166.00134873390198,166.00134873390198,166.00134873390198,166.76920890808105,2,0.9034504890441895,None,,,,,,,,,,,,,,,,,,7,5,2025-02-13_11h54.33.183,comp,2024.2.5,61.249045334735214,2025-02-13 11h58.21.121758 -0500,
58,58,0,filler_square,None,None,None,None,None,None,None,None,None,None,1,0.8270418643951416,None,,,,,0,0,0,0,0,58,58,180,166.78435063362122,,,,,,,,,,,,,,,,,,,,,,,,,,,,,,,,,,,,,,,,,,,,,,,,,,,,,,,,,,,,,,,,,,,,,,,,,,,,,,,,,,198.25076081386192,198.25076081386192,72.83505462251452,130.25572420016096,142.99765307743564,115.70045842417592,1.0,1.3,220,-269,480,-268,699,-289,166.7702066898346,166.77025032043457,166.77244520187378,166.78435063362122,166.93460297584534,166.93460297584534,166.93460297584534,166.93460297584534,166.93460297584534,166.93460297584534,166.93460297584534,167.6190938949585,1,0.8270418643951416,None,,,,,,,,,,,,,,,,,,7,5,2025-02-13_11h54.33.183,comp,2024.2.5,61.249045334735214,2025-02-13 11h58.21.121758 -0500,
59,59,0,critical,dhw,45.0,3.0,upper,117.0,117.0,200.0,125.0,125.0,200.0,3,2.193039655685425,None,,,,,0,0,0,0,0,59,59,51,167.6344816684723,,,,,,,,,,,,,,,,,,,,,,,,,,,,,,,,,,,,,,,,,,,,,,,,,,,,,,,,,,,,,,,,,,,,,,,,,,,,,,,,,,117.0,117.0,200.0,125.0,125.0,200.0,3.0,3.1,-217,280,0,-1,258,-282,167.61993193626404,167.61997389793396,167.62241649627686,167.6344816684723,167.7847249507904,167.7847249507904,167.7847249507904,167.7847249507904,167.7847249507904,167.7847249507904,167.7847249507904,169.83569478988647,3,2.193039655685425,None,,,,,,,,,,,,,,,,,,7,5,2025-02-13_11h54.33.183,comp,2024.2.5,61.249045334735214,2025-02-13 11h58.21.121758 -0500,
60,60,0,critical,dhw,45.0,4.0,upper,117.0,117.0,200.0,125.0,125.0,200.0,2,3.239131450653076,None,,,,,0,0,0,0,0,60,60,53,169.85115385055542,,,,,,,,,,,,,,,,,,,,,,,,,,,,,,,,,,,,,,,,,,,,,,,,,,,,,,,,,,,,,,,,,,,,,,,,,,,,,,,,,,117.0,117.0,200.0,125.0,125.0,200.0,4.0,4.2,-217,-11,0,-282,258,16,169.8364555835724,169.83649706840515,169.83885502815247,169.85115385055542,170.0013461112976,170.0013461112976,170.0013461112976,170.0013461112976,170.0013461112976,170.0013461112976,170.0013461112976,173.10277223587036,2,3.239131450653076,None,,,,,,,,,,,,,,,,,,7,5,2025-02-13_11h54.33.183,comp,2024.2.5,61.249045334735214,2025-02-13 11h58.21.121758 -0500,
61,61,0,critical,hdw,60.0,2.1,upper,200.0,125.0,100.0,100.0,125.0,200.0,3,1.9417767524719238,None,,,,,0,0,0,0,0,61,61,47,173.11756896972656,,,,,,,,,,,,,,,,,,,,,,,,,,,,,,,,,,,,,,,,,,,,,,,,,,,,,,,,,,,,,,,,,,,,,,,,,,,,,,,,,,200.0,125.0,100.0,100.0,125.0,200.0,2.1,2.11,-208,280,0,285,246,-277,173.10352683067322,173.1035795211792,173.10563588142395,173.11756896972656,173.26791858673096,173.26791858673096,173.26791858673096,173.26791858673096,173.26791858673096,173.26791858673096,173.26791858673096,175.06896328926086,3,1.9417767524719238,None,,,,,,,,,,,,,,,,,,7,5,2025-02-13_11h54.33.183,comp,2024.2.5,61.249045334735214,2025-02-13 11h58.21.121758 -0500,
62,62,0,critical,whd,45.0,2.1,lower,57.0,133.0,133.0,57.0,65.0,65.0,2,1.0641307830810547,None,,,,,0,0,0,0,0,62,62,12,175.08453845977783,,,,,,,,,,,,,,,,,,,,,,,,,,,,,,,,,,,,,,,,,,,,,,,,,,,,,,,,,,,,,,,,,,,,,,,,,,,,,,,,,,57.0,133.0,133.0,57.0,65.0,65.0,2.1,2.12,-191,-258,0,-281,157,257,175.06976342201233,175.06980419158936,175.07228446006775,175.08453845977783,175.23431420326233,175.23431420326233,175.23431420326233,175.23431420326233,175.23431420326233,175.23431420326233,175.23431420326233,176.1523745059967,2,1.0641307830810547,None,,,,,,,,,,,,,,,,,,7,5,2025-02-13_11h54.33.183,comp,2024.2.5,61.249045334735214,2025-02-13 11h58.21.121758 -0500,
63,63,0,filler_square,None,None,None,None,None,None,None,None,None,None,1,0.7495718002319336,None,,,,,0,0,0,0,0,63,63,204,176.16770792007446,,,,,,,,,,,,,,,,,,,,,,,,,,,,,,,,,,,,,,,,,,,,,,,,,,,,,,,,,,,,,,,,,,,,,,,,,,,,,,,,,,194.32691642785386,194.32691642785386,63.946500916272164,78.81786101562213,112.65138713538683,193.8070846646333,2.1,2.11,-233,250,0,267,232,-255,176.15350079536438,176.15354204177856,176.15574860572815,176.16770792007446,176.31785345077515,176.31785345077515,176.31785345077515,176.31785345077515,176.31785345077515,176.31785345077515,176.31785345077515,176.93577814102173,1,0.7495718002319336,None,,,,,,,,,,,,,,,,,,7,5,2025-02-13_11h54.33.183,comp,2024.2.5,61.249045334735214,2025-02-13 11h58.21.121758 -0500,
64,64,0,critical,hdw,60.0,4.0,lower,133.0,57.0,55.0,55.0,57.0,133.0,1,1.3713550567626953,None,,,,,0,0,0,0,0,64,64,118,176.95092296600342,,,,,,,,,,,,,,,,,,,,,,,,,,,,,,,,,,,,,,,,,,,,,,,,,,,,,,,,,,,,,,,,,,,,,,,,,,,,,,,,,,133.0,57.0,55.0,55.0,57.0,133.0,4.0,4.1,-152,-274,0,16,190,-260,176.93655705451965,176.93659806251526,176.93875741958618,176.95092296600342,177.10089135169983,177.10089135169983,177.10089135169983,177.10089135169983,177.10089135169983,177.10089135169983,177.10089135169983,178.33526062965393,1,1.3713550567626953,None,,,,,,,,,,,,,,,,,,7,5,2025-02-13_11h54.33.183,comp,2024.2.5,61.249045334735214,2025-02-13 11h58.21.121758 -0500,
65,65,0,critical,wdh,60.0,1.0,upper,125.0,200.0,100.0,100.0,200.0,125.0,1,1.539470911026001,None,,,,,0,0,0,0,0,65,65,79,178.35072946548462,,,,,,,,,,,,,,,,,,,,,,,,,,,,,,,,,,,,,,,,,,,,,,,,,,,,,,,,,,,,,,,,,,,,,,,,,,,,,,,,,,125.0,200.0,100.0,100.0,200.0,125.0,1.0,1.2,-246,14,0,0,208,-7,178.3360378742218,178.3360776901245,178.3386993408203,178.35072946548462,178.50094985961914,178.50094985961914,178.50094985961914,178.50094985961914,178.50094985961914,178.50094985961914,178.50094985961914,179.90281701087952,1,1.539470911026001,None,,,,,,,,,,,,,,,,,,7,5,2025-02-13_11h54.33.183,comp,2024.2.5,61.249045334735214,2025-02-13 11h58.21.121758 -0500,
66,66,0,catch,None,None,None,None,None,None,None,None,None,None,3,0.9415345191955566,None,,,,,0,0,0,0,0,66,66,128,179.91760206222534,,,,,,,,,,,,,,,,,,,,,,,,,,,,,,,,,,,,,,,,,,,,,,,,,,,,,,,,,,,,,,,,,,,,,,,,,,,,,,,,,,107,83,66,124,177,148,4.0,4.2,-200,-1,0,-273,232,-4,179.90388321876526,179.90392637252808,179.90621066093445,179.91760206222534,180.0676975250244,180.0676975250244,180.0676975250244,180.0676975250244,180.0676975250244,180.0676975250244,180.0676975250244,180.86872005462646,3,0.9415345191955566,None,,,,,,,,,,,,,,,,,,7,5,2025-02-13_11h54.33.183,comp,2024.2.5,61.249045334735214,2025-02-13 11h58.21.121758 -0500,
67,67,0,critical,whd,60.0,1.0,lower,57.0,133.0,133.0,57.0,55.0,55.0,2,0.9590022563934326,None,,,,,0,0,0,0,0,67,67,90,180.88425207138062,,,,,,,,,,,,,,,,,,,,,,,,,,,,,,,,,,,,,,,,,,,,,,,,,,,,,,,,,,,,,,,,,,,,,,,,,,,,,,,,,,57.0,133.0,133.0,57.0,55.0,55.0,1.0,1.2,-191,18,0,-11,152,9,180.86948084831238,180.86952137947083,180.8715944290161,180.88425207138062,181.03421568870544,181.03421568870544,181.03421568870544,181.03421568870544,181.03421568870544,181.03421568870544,181.03421568870544,181.85211873054504,2,0.9590022563934326,None,,,,,,,,,,,,,,,,,,7,5,2025-02-13_11h54.33.183,comp,2024.2.5,61.249045334735214,2025-02-13 11h58.21.121758 -0500,
68,68,0,critical,whd,60.0,2.1,upper,125.0,200.0,200.0,125.0,100.0,100.0,1,1.6493370532989502,None,,,,,0,0,0,0,0,68,68,15,181.8677146434784,,,,,,,,,,,,,,,,,,,,,,,,,,,,,,,,,,,,,,,,,,,,,,,,,,,,,,,,,,,,,,,,,,,,,,,,,,,,,,,,,,125.0,200.0,200.0,125.0,100.0,100.0,2.1,2.12,-258,-283,0,-274,208,271,181.85289335250854,181.85293316841125,181.85510110855103,181.8677146434784,182.0177891254425,182.0177891254425,182.0177891254425,182.0177891254425,182.0177891254425,182.0177891254425,182.0177891254425,183.53556489944458,1,1.6493370532989502,None,,,,,,,,,,,,,,,,,,7,5,2025-02-13_11h54.33.183,comp,2024.2.5,61.249045334735214,2025-02-13 11h58.21.121758 -0500,
69,69,0,filler_random,None,None,None,None,None,None,None,None,None,None,2,0.9395287036895752,None,,,,,0,0,0,0,0,69,69,156,183.5507459640503,,,,,,,,,,,,,,,,,,,,,,,,,,,,,,,,,,,,,,,,,,,,,,,,,,,,,,,,,,,,,,,,,,,,,,,,,,,,,,,,,,86.41167904470666,62.99974573671421,89.96190095549524,189.76449677539966,98.92252970619691,80.0654079764426,2.1,2.11,-222,283,0,279,231,-267,183.53650164604187,183.53654289245605,183.53889536857605,183.5507459640503,183.70092725753784,183.70092725753784,183.70092725753784,183.70092725753784,183.70092725753784,183.70092725753784,183.70092725753784,184.5021460056305,2,0.9395287036895752,None,,,,,,,,,,,,,,,,,,7,5,2025-02-13_11h54.33.183,comp,2024.2.5,61.249045334735214,2025-02-13 11h58.21.121758 -0500,
70,70,0,filler_random,None,None,None,None,None,None,None,None,None,None,3,0.9834296703338623,None,,,,,0,0,0,0,0,70,70,141,184.51768398284912,,,,,,,,,,,,,,,,,,,,,,,,,,,,,,,,,,,,,,,,,,,,,,,,,,,,,,,,,,,,,,,,,,,,,,,,,,,,,,,,,,71.15786231362549,95.63507150229611,109.56839353260885,63.6467920664411,128.77748285340883,191.4081563675182,2.2,2.22,-176,280,0,-266,224,-263,184.5030755996704,184.50311732292175,184.50660395622253,184.51768398284912,184.66760659217834,184.66760659217834,184.66760659217834,184.66760659217834,184.66760659217834,184.66760659217834,184.66760659217834,185.50246596336365,3,0.9834296703338623,None,,,,,,,,,,,,,,,,,,7,5,2025-02-13_11h54.33.183,comp,2024.2.5,61.249045334735214,2025-02-13 11h58.21.121758 -0500,
71,71,0,filler_random,None,None,None,None,None,None,None,None,None,None,1,1.125209093093872,None,,,,,0,0,0,0,0,71,71,168,185.51783776283264,,,,,,,,,,,,,,,,,,,,,,,,,,,,,,,,,,,,,,,,,,,,,,,,,,,,,,,,,,,,,,,,,,,,,,,,,,,,,,,,,,196.10410927323147,60.77777413891384,91.16872302895615,103.02149179266884,105.49705505810306,104.94359243833102,4.0,4.1,-178,-277,0,14,200,-270,185.50339651107788,185.5034375190735,185.50586891174316,185.51783776283264,185.66760444641113,185.66760444641113,185.66760444641113,185.66760444641113,185.66760444641113,185.66760444641113,185.66760444641113,186.65195536613464,1,1.125209093093872,None,,,,,,,,,,,,,,,,,,7,5,2025-02-13_11h54.33.183,comp,2024.2.5,61.249045334735214,2025-02-13 11h58.21.121758 -0500,
72,72,0,critical,hwd,60.0,4.0,upper,200.0,125.0,125.0,200.0,100.0,100.0,2,2.6866843700408936,None,,,,,0,0,0,0,0,72,72,107,186.66757678985596,,,,,,,,,,,,,,,,,,,,,,,,,,,,,,,,,,,,,,,,,,,,,,,,,,,,,,,,,,,,,,,,,,,,,,,,,,,,,,,,,,200.0,125.0,125.0,200.0,100.0,100.0,4.0,4.2,-258,-3,0,-259,246,-12,186.65275597572327,186.6527965068817,186.65493965148926,186.66757678985596,186.81787276268005,186.81787276268005,186.81787276268005,186.81787276268005,186.81787276268005,186.81787276268005,186.81787276268005,189.36893343925476,2,2.6866843700408936,None,,,,,,,,,,,,,,,,,,7,5,2025-02-13_11h54.33.183,comp,2024.2.5,61.249045334735214,2025-02-13 11h58.21.121758 -0500,
73,73,0,filler_random,None,None,None,None,None,None,None,None,None,None,3,2.1380903720855713,None,,,,,0,0,0,0,0,73,73,133,189.38401770591736,,,,,,,,,,,,,,,,,,,,,,,,,,,,,,,,,,,,,,,,,,,,,,,,,,,,,,,,,,,,,,,,,,,,,,,,,,,,,,,,,,131.70296953556806,177.57256124709608,130.62181359911222,72.3911392128016,148.5881987364915,178.08005650905807,2.1,2.11,-221,271,0,269,221,-253,189.37002968788147,189.37006855010986,189.37223720550537,189.38401770591736,189.53428101539612,189.53428101539612,189.53428101539612,189.53428101539612,189.53428101539612,189.53428101539612,189.53428101539612,191.53558349609375,3,2.1380903720855713,None,,,,,,,,,,,,,,,,,,7,5,2025-02-13_11h54.33.183,comp,2024.2.5,61.249045334735214,2025-02-13 11h58.21.121758 -0500,
74,74,0,critical,whd,60.0,4.0,lower,57.0,133.0,133.0,57.0,55.0,55.0,2,1.365966796875,None,,,,,0,0,0,0,0,74,74,94,191.55067491531372,,,,,,,,,,,,,,,,,,,,,,,,,,,,,,,,,,,,,,,,,,,,,,,,,,,,,,,,,,,,,,,,,,,,,,,,,,,,,,,,,,57.0,133.0,133.0,57.0,55.0,55.0,4.0,4.2,-191,-18,0,-276,152,20,191.5363690853119,191.5364089012146,191.53855919837952,191.55067491531372,191.70071005821228,191.70071005821228,191.70071005821228,191.70071005821228,191.70071005821228,191.70071005821228,191.70071005821228,192.91884541511536,2,1.365966796875,None,,,,,,,,,,,,,,,,,,7,5,2025-02-13_11h54.33.183,comp,2024.2.5,61.249045334735214,2025-02-13 11h58.21.121758 -0500,
75,75,0,critical,dwh,60.0,4.0,upper,100.0,100.0,125.0,200.0,200.0,125.0,2,2.4138972759246826,None,,,,,0,0,0,0,0,75,75,71,192.93419456481934,,,,,,,,,,,,,,,,,,,,,,,,,,,,,,,,,,,,,,,,,,,,,,,,,,,,,,,,,,,,,,,,,,,,,,,,,,,,,,,,,,100.0,100.0,125.0,200.0,200.0,125.0,4.0,4.1,-246,-256,0,-5,258,-281,192.91962695121765,192.91966891288757,192.92182183265686,192.93419456481934,193.08419156074524,193.08419156074524,193.08419156074524,193.08419156074524,193.08419156074524,193.08419156074524,193.08419156074524,195.35228490829468,2,2.4138972759246826,None,,,,,,,,,,,,,,,,,,7,5,2025-02-13_11h54.33.183,comp,2024.2.5,61.249045334735214,2025-02-13 11h58.21.121758 -0500,
76,76,0,filler_square,None,None,None,None,None,None,None,None,None,None,2,0.9653065204620361,None,,,,,0,0,0,0,0,76,76,188,195.36760544776917,,,,,,,,,,,,,,,,,,,,,,,,,,,,,,,,,,,,,,,,,,,,,,,,,,,,,,,,,,,,,,,,,,,,,,,,,,,,,,,,,,115.41869639371066,119.29477820294633,145.43560882827688,145.43560882827688,110.0400311379203,84.57466803978505,4.0,4.1,-228,-276,0,9,211,-281,195.3532416820526,195.35328269004822,195.35542154312134,195.36760544776917,195.51746559143066,195.51746559143066,195.51746559143066,195.51746559143066,195.51746559143066,195.51746559143066,195.51746559143066,196.33533596992493,2,0.9653065204620361,None,,,,,,,,,,,,,,,,,,7,5,2025-02-13_11h54.33.183,comp,2024.2.5,61.249045334735214,2025-02-13 11h58.21.121758 -0500,
77,77,0,critical,whd,60.0,2.1,upper,125.0,200.0,200.0,125.0,100.0,100.0,2,1.0354228019714355,None,,,,,0,0,0,0,0,77,77,39,196.35081601142883,,,,,,,,,,,,,,,,,,,,,,,,,,,,,,,,,,,,,,,,,,,,,,,,,,,,,,,,,,,,,,,,,,,,,,,,,,,,,,,,,,125.0,200.0,200.0,125.0,100.0,100.0,2.1,2.11,-258,284,0,278,208,-264,196.33612656593323,196.3361668586731,196.33836221694946,196.35081601142883,196.50081300735474,196.50081300735474,196.50081300735474,196.50081300735474,196.50081300735474,196.50081300735474,196.50081300735474,197.40194582939148,2,1.0354228019714355,None,,,,,,,,,,,,,,,,,,7,5,2025-02-13_11h54.33.183,comp,2024.2.5,61.249045334735214,2025-02-13 11h58.21.121758 -0500,
78,78,0,filler_random,None,None,None,None,None,None,None,None,None,None,1,1.2256543636322021,None,,,,,0,0,0,0,0,78,78,140,197.41734981536865,,,,,,,,,,,,,,,,,,,,,,,,,,,,,,,,,,,,,,,,,,,,,,,,,,,,,,,,,,,,,,,,,,,,,,,,,,,,,,,,,,151.22171361580075,196.80884709273525,134.0661549898735,89.9566755587288,182.74846424964164,105.04643650911902,2.2,2.21,-239,-290,0,283,194,276,197.4029040336609,197.4029438495636,197.40534949302673,197.41734981536865,197.56753826141357,197.56753826141357,197.56753826141357,197.56753826141357,197.56753826141357,197.56753826141357,197.56753826141357,198.65202593803406,1,1.2256543636322021,None,,,,,,,,,,,,,,,,,,7,5,2025-02-13_11h54.33.183,comp,2024.2.5,61.249045334735214,2025-02-13 11h58.21.121758 -0500,
79,79,0,critical,whd,45.0,2.1,upper,125.0,200.0,200.0,125.0,117.0,117.0,1,1.5115323066711426,None,,,,,0,0,0,0,0,79,79,13,198.66742873191833,,,,,,,,,,,,,,,,,,,,,,,,,,,,,,,,,,,,,,,,,,,,,,,,,,,,,,,,,,,,,,,,,,,,,,,,,,,,,,,,,,125.0,200.0,200.0,125.0,117.0,117.0,2.1,2.11,-258,282,0,259,217,-282,198.65279078483582,198.65283179283142,198.65491890907288,198.66742873191833,198.81756806373596,198.81756806373596,198.81756806373596,198.81756806373596,198.81756806373596,198.81756806373596,198.81756806373596,200.18546962738037,1,1.5115323066711426,None,,,,,,,,,,,,,,,,,,7,5,2025-02-13_11h54.33.183,comp,2024.2.5,61.249045334735214,2025-02-13 11h58.21.121758 -0500,
80,80,0,filler_square,None,None,None,None,None,None,None,None,None,None,2,1.4665446281433105,None,,,,,0,0,0,0,0,80,80,199,200.2009310722351,,,,,,,,,,,,,,,,,,,,,,,,,,,,,,,,,,,,,,,,,,,,,,,,,,,,,,,,,,,,,,,,,,,,,,,,,,,,,,,,,,93.55893446190797,72.24505223437816,101.60919893425435,101.60919893425435,68.35061303537557,97.31434661512996,4.0,4.2,-183,-13,0,-279,195,0,200.18644285202026,200.18648433685303,200.18932676315308,200.2009310722351,200.35270047187805,200.35270047187805,200.35270047187805,200.35270047187805,200.35270047187805,200.35270047187805,200.35270047187805,201.6849479675293,2,1.4665446281433105,None,,,,,,,,,,,,,,,,,,7,5,2025-02-13_11h54.33.183,comp,2024.2.5,61.249045334735214,2025-02-13 11h58.21.121758 -0500,
81,81,0,filler_square,None,None,None,None,None,None,None,None,None,None,2,0.9894504547119141,None,,,,,0,0,0,0,0,81,81,186,201.70049476623535,,,,,,,,,,,,,,,,,,,,,,,,,,,,,,,,,,,,,,,,,,,,,,,,,,,,,,,,,,,,,,,,,,,,,,,,,,,,,,,,,,58.931762764064366,68.42557017402761,87.69005787474958,87.69005787474958,57.064848241522924,75.75195018027183,2.1,2.12,-174,-264,0,-254,178,259,201.68590641021729,201.6859471797943,201.68843007087708,201.70049476623535,201.85062980651855,201.85062980651855,201.85062980651855,201.85062980651855,201.85062980651855,201.85062980651855,201.85062980651855,202.70227766036987,2,0.9894504547119141,None,,,,,,,,,,,,,,,,,,7,5,2025-02-13_11h54.33.183,comp,2024.2.5,61.249045334735214,2025-02-13 11h58.21.121758 -0500,
82,82,0,filler_random,None,None,None,None,None,None,None,None,None,None,3,1.1995954513549805,None,,,,,0,0,0,0,0,82,82,137,202.71723890304565,,,,,,,,,,,,,,,,,,,,,,,,,,,,,,,,,,,,,,,,,,,,,,,,,,,,,,,,,,,,,,,,,,,,,,,,,,,,,,,,,,60.39025297621115,146.57378556049724,164.1352798901804,199.44121008953329,195.70693953463515,184.80050854457147,4.0,4.2,-269,4,0,-270,288,15,202.7031853199005,202.70322608947754,202.70572304725647,202.71723890304565,202.86756348609924,202.86756348609924,202.86756348609924,202.86756348609924,202.86756348609924,202.86756348609924,202.86756348609924,203.91915082931519,3,1.1995954513549805,None,,,,,,,,,,,,,,,,,,7,5,2025-02-13_11h54.33.183,comp,2024.2.5,61.249045334735214,2025-02-13 11h58.21.121758 -0500,
83,83,0,filler_random,None,None,None,None,None,None,None,None,None,None,2,0.9170124530792236,None,,,,,0,0,0,0,0,83,83,154,203.93427205085754,,,,,,,,,,,,,,,,,,,,,,,,,,,,,,,,,,,,,,,,,,,,,,,,,,,,,,,,,,,,,,,,,,,,,,,,,,,,,,,,,,178.2371715274358,107.59039405561441,196.95951907420715,132.93177882808743,153.71790182929138,89.23952234920995,2.2,2.21,-216,-282,0,256,207,276,203.92016863822937,203.92021226882935,203.92290949821472,203.93427205085754,204.08408331871033,204.08408331871033,204.08408331871033,204.08408331871033,204.08408331871033,204.08408331871033,204.08408331871033,204.86843967437744,2,0.9170124530792236,None,,,,,,,,,,,,,,,,,,7,5,2025-02-13_11h54.33.183,comp,2024.2.5,61.249045334735214,2025-02-13 11h58.21.121758 -0500,
84,84,0,critical,hwd,60.0,2.1,lower,133.0,57.0,57.0,133.0,55.0,55.0,1,1.4637408256530762,None,,,,,0,0,0,0,0,84,84,18,204.883770942688,,,,,,,,,,,,,,,,,,,,,,,,,,,,,,,,,,,,,,,,,,,,,,,,,,,,,,,,,,,,,,,,,,,,,,,,,,,,,,,,,,133.0,57.0,57.0,133.0,55.0,55.0,2.1,2.11,-191,253,0,251,190,-255,204.86927342414856,204.869313955307,204.87192368507385,204.883770942688,205.03387093544006,205.03387093544006,205.03387093544006,205.03387093544006,205.03387093544006,205.03387093544006,205.03387093544006,206.351717710495,1,1.4637408256530762,None,,,,,,,,,,,,,,,,,,7,5,2025-02-13_11h54.33.183,comp,2024.2.5,61.249045334735214,2025-02-13 11h58.21.121758 -0500,
85,85,0,catch,None,None,None,None,None,None,None,None,None,None,3,0.8837025165557861,None,,,,,0,0,0,0,0,85,85,127,206.36756992340088,,,,,,,,,,,,,,,,,,,,,,,,,,,,,,,,,,,,,,,,,,,,,,,,,,,,,,,,,,,,,,,,,,,,,,,,,,,,,,,,,,74,116,92,98,192,133,2.2,2.21,-203,-253,0,273,212,273,206.3527717590332,206.3528115749359,206.35499930381775,206.36756992340088,206.51735043525696,206.51735043525696,206.51735043525696,206.51735043525696,206.51735043525696,206.51735043525696,206.51735043525696,207.26853847503662,3,0.8837025165557861,None,,,,,,,,,,,,,,,,,,7,5,2025-02-13_11h54.33.183,comp,2024.2.5,61.249045334735214,2025-02-13 11h58.21.121758 -0500,
86,86,0,critical,dhw,45.0,2.1,lower,65.0,65.0,133.0,57.0,57.0,133.0,2,1.086008071899414,None,,,,,0,0,0,0,0,86,86,24,207.2841203212738,,,,,,,,,,,,,,,,,,,,,,,,,,,,,,,,,,,,,,,,,,,,,,,,,,,,,,,,,,,,,,,,,,,,,,,,,,,,,,,,,,65.0,65.0,133.0,57.0,57.0,133.0,2.1,2.11,-157,267,0,254,191,-267,207.2693703174591,207.26941061019897,207.27305698394775,207.2841203212738,207.4340856075287,207.4340856075287,207.4340856075287,207.4340856075287,207.4340856075287,207.4340856075287,207.4340856075287,208.38527274131775,2,1.086008071899414,None,,,,,,,,,,,,,,,,,,7,5,2025-02-13_11h54.33.183,comp,2024.2.5,61.249045334735214,2025-02-13 11h58.21.121758 -0500,
87,87,0,critical,hwd,45.0,2.1,lower,133.0,57.0,57.0,133.0,65.0,65.0,1,1.505350112915039,None,,,,,0,0,0,0,0,87,87,16,208.40049529075623,,,,,,,,,,,,,,,,,,,,,,,,,,,,,,,,,,,,,,,,,,,,,,,,,,,,,,,,,,,,,,,,,,,,,,,,,,,,,,,,,,133.0,57.0,57.0,133.0,65.0,65.0,2.1,2.12,-191,-263,0,-272,195,284,208.38606548309326,208.38610744476318,208.38868618011475,208.40049529075623,208.55055141448975,208.55055141448975,208.55055141448975,208.55055141448975,208.55055141448975,208.55055141448975,208.55055141448975,209.9183042049408,1,1.505350112915039,None,,,,,,,,,,,,,,,,,,7,5,2025-02-13_11h54.33.183,comp,2024.2.5,61.249045334735214,2025-02-13 11h58.21.121758 -0500,
88,88,0,critical,dhw,60.0,2.1,lower,55.0,55.0,133.0,57.0,57.0,133.0,2,0.9415245056152344,None,,,,,0,0,0,0,0,88,88,2,209.93359875679016,,,,,,,,,,,,,,,,,,,,,,,,,,,,,,,,,,,,,,,,,,,,,,,,,,,,,,,,,,,,,,,,,,,,,,,,,,,,,,,,,,55.0,55.0,133.0,57.0,57.0,133.0,2.1,2.11,-152,271,0,254,191,-285,209.91913270950317,209.91917419433594,209.92184615135193,209.93359875679016,210.0838418006897,210.0838418006897,210.0838418006897,210.0838418006897,210.0838418006897,210.0838418006897,210.0838418006897,210.8849277496338,2,0.9415245056152344,None,,,,,,,,,,,,,,,,,,7,5,2025-02-13_11h54.33.183,comp,2024.2.5,61.249045334735214,2025-02-13 11h58.21.121758 -0500,
89,89,0,critical,wdh,45.0,1.0,lower,57.0,133.0,65.0,65.0,133.0,57.0,1,1.5179409980773926,None,,,,,0,0,0,0,0,89,89,72,210.90124917030334,,,,,,,,,,,,,,,,,,,,,,,,,,,,,,,,,,,,,,,,,,,,,,,,,,,,,,,,,,,,,,,,,,,,,,,,,,,,,,,,,,57.0,133.0,65.0,65.0,133.0,57.0,1.0,1.1,-675,281,-480,287,-323,253,210.8857307434082,210.88577127456665,210.88800621032715,210.90124917030334,211.0505874156952,211.0505874156952,211.0505874156952,211.0505874156952,211.0505874156952,211.0505874156952,211.0505874156952,212.43493366241455,1,1.5179409980773926,None,,,,,,,,,,,,,,,,,,7,5,2025-02-13_11h54.33.183,comp,2024.2.5,61.249045334735214,2025-02-13 11h58.21.121758 -0500,
90,90,0,critical,hdw,45.0,3.0,upper,200.0,125.0,117.0,117.0,125.0,200.0,3,1.4173457622528076,None,,,,,0,0,0,0,0,90,90,111,212.45036840438843,,,,,,,,,,,,,,,,,,,,,,,,,,,,,,,,,,,,,,,,,,,,,,,,,,,,,,,,,,,,,,,,,,,,,,,,,,,,,,,,,,200.0,125.0,117.0,117.0,125.0,200.0,3.0,3.2,-217,-269,0,3,254,255,212.43570566177368,212.4357452392578,212.4381775856018,212.45036840438843,212.6007399559021,212.6007399559021,212.6007399559021,212.6007399559021,212.6007399559021,212.6007399559021,212.6007399559021,213.8851170539856,3,1.4173457622528076,None,,,,,,,,,,,,,,,,,,7,5,2025-02-13_11h54.33.183,comp,2024.2.5,61.249045334735214,2025-02-13 11h58.21.121758 -0500,
91,91,0,critical,dhw,45.0,2.1,upper,117.0,117.0,200.0,125.0,125.0,200.0,2,1.542278528213501,None,,,,,0,0,0,0,0,91,91,1,213.9005250930786,,,,,,,,,,,,,,,,,,,,,,,,,,,,,,,,,,,,,,,,,,,,,,,,,,,,,,,,,,,,,,,,,,,,,,,,,,,,,,,,,,117.0,117.0,200.0,125.0,125.0,200.0,2.1,2.12,-217,-283,0,-262,258,288,213.885910987854,213.8859519958496,213.88841223716736,213.9005250930786,214.05067443847656,214.05067443847656,214.05067443847656,214.05067443847656,214.05067443847656,214.05067443847656,214.05067443847656,215.4518129825592,2,1.542278528213501,None,,,,,,,,,,,,,,,,,,7,5,2025-02-13_11h54.33.183,comp,2024.2.5,61.249045334735214,2025-02-13 11h58.21.121758 -0500,
92,92,0,filler_square,None,None,None,None,None,None,None,None,None,None,3,1.1669528484344482,None,,,,,0,0,0,0,0,92,92,190,215.46736001968384,,,,,,,,,,,,,,,,,,,,,,,,,,,,,,,,,,,,,,,,,,,,,,,,,,,,,,,,,,,,,,,,,,,,,,,,,,,,,,,,,,107.50902256532578,100.33985006833908,116.87771372207007,70.0208547661144,126.99632141829741,126.99632141829741,2.2,2.21,-181,-260,0,269,195,272,215.45280265808105,215.4528443813324,215.45499753952026,215.46736001968384,215.61714673042297,215.61714673042297,215.61714673042297,215.61714673042297,215.61714673042297,215.61714673042297,215.61714673042297,216.6518430709839,3,1.1669528484344482,None,,,,,,,,,,,,,,,,,,7,5,2025-02-13_11h54.33.183,comp,2024.2.5,61.249045334735214,2025-02-13 11h58.21.121758 -0500,
93,93,0,filler_random,None,None,None,None,None,None,None,None,None,None,1,1.0228009223937988,None,,,,,0,0,0,0,0,93,93,155,216.667053937912,,,,,,,,,,,,,,,,,,,,,,,,,,,,,,,,,,,,,,,,,,,,,,,,,,,,,,,,,,,,,,,,,,,,,,,,,,,,,,,,,,137.68982653966685,181.4682795874382,104.78581192521892,150.78913061763416,93.79869790600301,157.1110965229069,2.2,2.22,-262,259,0,-250,250,-265,216.65279936790466,216.652841091156,216.6549575328827,216.667053937912,216.817218542099,216.817218542099,216.817218542099,216.817218542099,216.817218542099,216.817218542099,216.817218542099,217.70190405845642,1,1.0228009223937988,None,,,,,,,,,,,,,,,,,,7,5,2025-02-13_11h54.33.183,comp,2024.2.5,61.249045334735214,2025-02-13 11h58.21.121758 -0500,
94,94,0,filler_square,None,None,None,None,None,None,None,None,None,None,1,1.6611266136169434,None,,,,,0,0,0,0,0,94,94,193,217.71755194664001,,,,,,,,,,,,,,,,,,,,,,,,,,,,,,,,,,,,,,,,,,,,,,,,,,,,,,,,,,,,,,,,,,,,,,,,,,,,,,,,,,81.44652530964579,81.44652530964579,63.331753917537526,79.21507518234289,80.19263714605773,72.44099470467852,4.0,4.2,-176,-14,0,-274,172,-17,217.70287132263184,217.70291304588318,217.70648217201233,217.71755194664001,217.8670690059662,217.8670690059662,217.8670690059662,217.8670690059662,217.8670690059662,217.8670690059662,217.8670690059662,219.38475012779236,1,1.6611266136169434,None,,,,,,,,,,,,,,,,,,7,5,2025-02-13_11h54.33.183,comp,2024.2.5,61.249045334735214,2025-02-13 11h58.21.121758 -0500,
95,95,0,filler_square,None,None,None,None,None,None,None,None,None,None,2,1.7693934440612793,None,,,,,0,0,0,0,0,95,95,196,219.40064191818237,,,,,,,,,,,,,,,,,,,,,,,,,,,,,,,,,,,,,,,,,,,,,,,,,,,,,,,,,,,,,,,,,,,,,,,,,,,,,,,,,,64.34027948126433,60.79915331530379,67.23192372673196,67.23192372673196,61.78078883901946,57.69278821799296,4.0,4.1,-160,-255,0,-15,158,-250,219.38570642471313,219.38574695587158,219.3881711959839,219.40064191818237,219.55040621757507,219.55040621757507,219.55040621757507,219.55040621757507,219.55040621757507,219.55040621757507,219.55040621757507,221.184668302536,2,1.7693934440612793,None,,,,,,,,,,,,,,,,,,7,5,2025-02-13_11h54.33.183,comp,2024.2.5,61.249045334735214,2025-02-13 11h58.21.121758 -0500,
96,96,0,critical,dwh,60.0,1.0,upper,100.0,100.0,125.0,200.0,200.0,125.0,2,1.5537919998168945,None,,,,,0,0,0,0,0,96,96,67,221.20024132728577,,,,,,,,,,,,,,,,,,,,,,,,,,,,,,,,,,,,,,,,,,,,,,,,,,,,,,,,,,,,,,,,,,,,,,,,,,,,,,,,,,100.0,100.0,125.0,200.0,200.0,125.0,1.0,1.2,-246,-1,0,11,258,-2,221.18542432785034,221.18546295166016,221.1877419948578,221.20024132728577,221.35058999061584,221.35058999061584,221.35058999061584,221.35058999061584,221.35058999061584,221.35058999061584,221.35058999061584,222.76850628852844,2,1.5537919998168945,None,,,,,,,,,,,,,,,,,,7,5,2025-02-13_11h54.33.183,comp,2024.2.5,61.249045334735214,2025-02-13 11h58.21.121758 -0500,
97,97,0,critical,wdh,60.0,4.0,lower,57.0,133.0,55.0,55.0,133.0,57.0,3,2.1003262996673584,None,,,,,0,0,0,0,0,97,97,82,222.78365063667297,,,,,,,,,,,,,,,,,,,,,,,,,,,,,,,,,,,,,,,,,,,,,,,,,,,,,,,,,,,,,,,,,,,,,,,,,,,,,,,,,,57.0,133.0,55.0,55.0,133.0,57.0,4.0,4.2,-190,6,0,-280,152,17,222.76940846443176,222.7694492340088,222.7722532749176,222.78365063667297,222.93357706069946,222.93357706069946,222.93357706069946,222.93357706069946,222.93357706069946,222.93357706069946,222.93357706069946,224.9018054008484,3,2.1003262996673584,None,,,,,,,,,,,,,,,,,,7,5,2025-02-13_11h54.33.183,comp,2024.2.5,61.249045334735214,2025-02-13 11h58.21.121758 -0500,
98,98,0,filler_square,None,None,None,None,None,None,None,None,None,None,2,1.3009467124938965,None,,,,,0,0,0,0,0,98,98,170,224.91683912277222,,,,,,,,,,,,,,,,,,,,,,,,,,,,,,,,,,,,,,,,,,,,,,,,,,,,,,,,,,,,,,,,,,,,,,,,,,,,,,,,,,75.48977559823666,90.9215522965518,91.60721579983843,91.60721579983843,91.06704190473252,68.98761303895235,3.0,3.2,-187,-261,0,17,176,255,224.9027554988861,224.90279531478882,224.9048571586609,224.91683912277222,225.06685614585876,225.06685614585876,225.06685614585876,225.06685614585876,225.06685614585876,225.06685614585876,225.06685614585876,226.2346568107605,2,1.3009467124938965,None,,,,,,,,,,,,,,,,,,7,5,2025-02-13_11h54.33.183,comp,2024.2.5,61.249045334735214,2025-02-13 11h58.21.121758 -0500,
99,99,0,critical,dhw,60.0,3.0,upper,100.0,100.0,200.0,125.0,125.0,200.0,3,1.250415563583374,None,,,,,0,0,0,0,0,99,99,57,226.25014233589172,,,,,,,,,,,,,,,,,,,,,,,,,,,,,,,,,,,,,,,,,,,,,,,,,,,,,,,,,,,,,,,,,,,,,,,,,,,,,,,,,,100.0,100.0,200.0,125.0,125.0,200.0,3.0,3.1,-208,278,0,-10,258,-288,226.23543214797974,226.2354724407196,226.2378647327423,226.25014233589172,226.40067338943481,226.40067338943481,226.40067338943481,226.40067338943481,226.40067338943481,226.40067338943481,226.40067338943481,227.5018277168274,3,1.250415563583374,None,,,,,,,,,,,,,,,,,,7,5,2025-02-13_11h54.33.183,comp,2024.2.5,61.249045334735214,2025-02-13 11h58.21.121758 -0500,
100,100,0,critical,hwd,45.0,2.1,upper,200.0,125.0,125.0,200.0,117.0,117.0,1,0.9885153770446777,None,,,,,0,0,0,0,0,100,100,41,227.51710605621338,,,,,,,,,,,,,,,,,,,,,,,,,,,,,,,,,,,,,,,,,,,,,,,,,,,,,,,,,,,,,,,,,,,,,,,,,,,,,,,,,,200.0,125.0,125.0,200.0,117.0,117.0,2.1,2.11,-258,263,0,266,254,-282,227.50260162353516,227.50265550613403,227.50481152534485,227.51710605621338,227.66717648506165,227.66717648506165,227.66717648506165,227.66717648506165,227.66717648506165,227.66717648506165,227.66717648506165,228.51857209205627,1,0.9885153770446777,None,,,,,,,,,,,,,,,,,,7,5,2025-02-13_11h54.33.183,comp,2024.2.5,61.249045334735214,2025-02-13 11h58.21.121758 -0500,
101,101,0,critical,dhw,45.0,1.0,lower,65.0,65.0,133.0,57.0,57.0,133.0,2,0.9336333274841309,None,,,,,0,0,0,0,0,101,101,48,228.53350234031677,,,,,,,,,,,,,,,,,,,,,,,,,,,,,,,,,,,,,,,,,,,,,,,,,,,,,,,,,,,,,,,,,,,,,,,,,,,,,,,,,,65.0,65.0,133.0,57.0,57.0,133.0,1.0,1.3,323,-260,480,-268,671,-265,228.51935982704163,228.5193977355957,228.52168536186218,228.53350234031677,228.68357944488525,228.68357944488525,228.68357944488525,228.68357944488525,228.68357944488525,228.68357944488525,228.68357944488525,229.48468852043152,2,0.9336333274841309,None,,,,,,,,,,,,,,,,,,7,5,2025-02-13_11h54.33.183,comp,2024.2.5,61.249045334735214,2025-02-13 11h58.21.121758 -0500,
102,102,0,critical,wdh,60.0,1.0,lower,57.0,133.0,55.0,55.0,133.0,57.0,3,1.000352144241333,None,,,,,0,0,0,0,0,102,102,78,229.50012493133545,,,,,,,,,,,,,,,,,,,,,,,,,,,,,,,,,,,,,,,,,,,,,,,,,,,,,,,,,,,,,,,,,,,,,,,,,,,,,,,,,,57.0,133.0,55.0,55.0,133.0,57.0,1.0,1.3,290,-264,480,-269,632,-275,229.4854600429535,229.48549962043762,229.48789954185486,229.50012493133545,229.65030789375305,229.65030789375305,229.65030789375305,229.65030789375305,229.65030789375305,229.65030789375305,229.65030789375305,230.5017647743225,3,1.000352144241333,None,,,,,,,,,,,,,,,,,,7,5,2025-02-13_11h54.33.183,comp,2024.2.5,61.249045334735214,2025-02-13 11h58.21.121758 -0500,
103,103,0,filler_random,None,None,None,None,None,None,None,None,None,None,1,0.9500517845153809,None,,,,,0,0,0,0,0,103,103,161,230.51716780662537,,,,,,,,,,,,,,,,,,,,,,,,,,,,,,,,,,,,,,,,,,,,,,,,,,,,,,,,,,,,,,,,,,,,,,,,,,,,,,,,,,69.3037864101673,159.20424287770777,71.18906070483693,134.9472128273303,85.99775509485616,113.39532344695169,3.0,3.2,-243,-252,0,10,220,264,230.50271272659302,230.50277400016785,230.50540232658386,230.51716780662537,230.66703391075134,230.66703391075134,230.66703391075134,230.66703391075134,230.66703391075134,230.66703391075134,230.66703391075134,231.4847915172577,1,0.9500517845153809,None,,,,,,,,,,,,,,,,,,7,5,2025-02-13_11h54.33.183,comp,2024.2.5,61.249045334735214,2025-02-13 11h58.21.121758 -0500,
104,104,0,critical,wdh,45.0,3.0,upper,125.0,200.0,117.0,117.0,200.0,125.0,3,1.621452808380127,None,,,,,0,0,0,0,0,104,104,75,231.5001037120819,,,,,,,,,,,,,,,,,,,,,,,,,,,,,,,,,,,,,,,,,,,,,,,,,,,,,,,,,,,,,,,,,,,,,,,,,,,,,,,,,,125.0,200.0,117.0,117.0,200.0,125.0,3.0,3.1,-254,264,0,-4,217,-261,231.48556685447693,231.4856071472168,231.48808026313782,231.5001037120819,231.65043306350708,231.65043306350708,231.65043306350708,231.65043306350708,231.65043306350708,231.65043306350708,231.65043306350708,233.13492345809937,3,1.621452808380127,None,,,,,,,,,,,,,,,,,,7,5,2025-02-13_11h54.33.183,comp,2024.2.5,61.249045334735214,2025-02-13 11h58.21.121758 -0500,
105,105,0,critical,whd,45.0,1.0,lower,57.0,133.0,133.0,57.0,65.0,65.0,2,0.8357293605804443,None,,,,,0,0,0,0,0,105,105,84,233.1502285003662,,,,,,,,,,,,,,,,,,,,,,,,,,,,,,,,,,,,,,,,,,,,,,,,,,,,,,,,,,,,,,,,,,,,,,,,,,,,,,,,,,57.0,133.0,133.0,57.0,65.0,65.0,1.0,1.1,-671,287,-480,261,-323,274,233.13572359085083,233.13576436042786,233.13896536827087,233.1502285003662,233.3002064228058,233.3002064228058,233.3002064228058,233.3002064228058,233.3002064228058,233.3002064228058,233.3002064228058,234.0013997554779,2,0.8357293605804443,None,,,,,,,,,,,,,,,,,,7,5,2025-02-13_11h54.33.183,comp,2024.2.5,61.249045334735214,2025-02-13 11h58.21.121758 -0500,
106,106,0,critical,dwh,60.0,2.1,upper,100.0,100.0,125.0,200.0,200.0,125.0,2,1.0834336280822754,None,,,,,0,0,0,0,0,106,106,7,234.01682305335999,,,,,,,,,,,,,,,,,,,,,,,,,,,,,,,,,,,,,,,,,,,,,,,,,,,,,,,,,,,,,,,,,,,,,,,,,,,,,,,,,,100.0,100.0,125.0,200.0,200.0,125.0,2.1,2.12,-246,-267,0,-260,258,251,234.00223851203918,234.00227880477905,234.00485587120056,234.01682305335999,234.16698932647705,234.16698932647705,234.16698932647705,234.16698932647705,234.16698932647705,234.16698932647705,234.16698932647705,235.10181498527527,2,1.0834336280822754,None,,,,,,,,,,,,,,,,,,7,5,2025-02-13_11h54.33.183,comp,2024.2.5,61.249045334735214,2025-02-13 11h58.21.121758 -0500,
107,107,0,critical,hwd,60.0,1.0,upper,200.0,125.0,125.0,200.0,100.0,100.0,2,1.5094695091247559,None,,,,,0,0,0,0,0,107,107,103,235.1170253753662,,,,,,,,,,,,,,,,,,,,,,,,,,,,,,,,,,,,,,,,,,,,,,,,,,,,,,,,,,,,,,,,,,,,,,,,,,,,,,,,,,200.0,125.0,125.0,200.0,100.0,100.0,1.0,1.2,-258,4,0,-7,246,-2,235.10259866714478,235.10265183448792,235.10489916801453,235.1170253753662,235.2671172618866,235.2671172618866,235.2671172618866,235.2671172618866,235.2671172618866,235.2671172618866,235.2671172618866,236.63478326797485,2,1.5094695091247559,None,,,,,,,,,,,,,,,,,,7,5,2025-02-13_11h54.33.183,comp,2024.2.5,61.249045334735214,2025-02-13 11h58.21.121758 -0500,
108,108,0,critical,wdh,60.0,2.1,lower,57.0,133.0,55.0,55.0,133.0,57.0,3,1.1434712409973145,None,,,,,0,0,0,0,0,108,108,10,236.66702604293823,,,,,,,,,,,,,,,,,,,,,,,,,,,,,,,,,,,,,,,,,,,,,,,,,,,,,,,,,,,,,,,,,,,,,,,,,,,,,,,,,,57.0,133.0,55.0,55.0,133.0,57.0,2.1,2.12,-190,-276,0,-253,152,282,236.6355447769165,236.63558554649353,236.63793754577637,236.66702604293823,236.8001902103424,236.8001902103424,236.8001902103424,236.8001902103424,236.8001902103424,236.8001902103424,236.8001902103424,237.81795525550842,3,1.1434712409973145,None,,,,,,,,,,,,,,,,,,7,5,2025-02-13_11h54.33.183,comp,2024.2.5,61.249045334735214,2025-02-13 11h58.21.121758 -0500,
109,109,0,critical,hdw,45.0,2.1,upper,200.0,125.0,117.0,117.0,125.0,200.0,3,1.3364720344543457,None,,,,,0,0,0,0,0,109,109,45,237.83362865447998,,,,,,,,,,,,,,,,,,,,,,,,,,,,,,,,,,,,,,,,,,,,,,,,,,,,,,,,,,,,,,,,,,,,,,,,,,,,,,,,,,200.0,125.0,117.0,117.0,125.0,200.0,2.1,2.12,-217,-250,0,-265,254,252,237.8187711238861,237.81881093978882,237.82125687599182,237.83362865447998,237.98367929458618,237.98367929458618,237.98367929458618,237.98367929458618,237.98367929458618,237.98367929458618,237.98367929458618,239.18487238883972,3,1.3364720344543457,None,,,,,,,,,,,,,,,,,,7,5,2025-02-13_11h54.33.183,comp,2024.2.5,61.249045334735214,2025-02-13 11h58.21.121758 -0500,
110,110,0,critical,hwd,45.0,4.0,lower,133.0,57.0,57.0,133.0,65.0,65.0,1,1.5321621894836426,None,,,,,0,0,0,0,0,110,110,100,239.200199842453,,,,,,,,,,,,,,,,,,,,,,,,,,,,,,,,,,,,,,,,,,,,,,,,,,,,,,,,,,,,,,,,,,,,,,,,,,,,,,,,,,133.0,57.0,57.0,133.0,65.0,65.0,4.0,4.2,-191,7,0,-259,195,18,239.1856813430786,239.18572092056274,239.18910193443298,239.200199842453,239.3502233028412,239.3502233028412,239.3502233028412,239.3502233028412,239.3502233028412,239.3502233028412,239.3502233028412,240.75122380256653,1,1.5321621894836426,None,,,,,,,,,,,,,,,,,,7,5,2025-02-13_11h54.33.183,comp,2024.2.5,61.249045334735214,2025-02-13 11h58.21.121758 -0500,
111,111,0,filler_square,None,None,None,None,None,None,None,None,None,None,2,0.90047287940979,None,,,,,0,0,0,0,0,111,111,194,240.76666808128357,,,,,,,,,,,,,,,,,,,,,,,,,,,,,,,,,,,,,,,,,,,,,,,,,,,,,,,,,,,,,,,,,,,,,,,,,,,,,,,,,,104.93366954079382,90.99110197693497,117.61108935500158,117.61108935500158,88.54735994023247,98.43633317309911,2.1,2.12,-200,-272,0,-272,204,283,240.7521994113922,240.75223994255066,240.75479555130005,240.76666808128357,240.91681051254272,240.91681051254272,240.91681051254272,240.91681051254272,240.91681051254272,240.91681051254272,240.91681051254272,241.68463158607483,2,0.90047287940979,None,,,,,,,,,,,,,,,,,,7,5,2025-02-13_11h54.33.183,comp,2024.2.5,61.249045334735214,2025-02-13 11h58.21.121758 -0500,
112,112,0,filler_random,None,None,None,None,None,None,None,None,None,None,3,1.0857505798339844,None,,,,,0,0,0,0,0,112,112,162,241.70006728172302,,,,,,,,,,,,,,,,,,,,,,,,,,,,,,,,,,,,,,,,,,,,,,,,,,,,,,,,,,,,,,,,,,,,,,,,,,,,,,,,,,144.20117675454148,187.72261620536324,90.16066080023674,81.47987400008918,173.52041605740794,163.31756102218395,3.0,3.2,-231,-256,0,-7,218,270,241.6855275630951,241.68556833267212,241.688574552536,241.70006728172302,241.85036778450012,241.85036778450012,241.85036778450012,241.85036778450012,241.85036778450012,241.85036778450012,241.85036778450012,242.80141067504883,3,1.0857505798339844,None,,,,,,,,,,,,,,,,,,7,5,2025-02-13_11h54.33.183,comp,2024.2.5,61.249045334735214,2025-02-13 11h58.21.121758 -0500,
113,113,0,critical,wdh,45.0,2.1,lower,57.0,133.0,65.0,65.0,133.0,57.0,3,1.369032621383667,None,,,,,0,0,0,0,0,113,113,32,242.81653332710266,,,,,,,,,,,,,,,,,,,,,,,,,,,,,,,,,,,,,,,,,,,,,,,,,,,,,,,,,,,,,,,,,,,,,,,,,,,,,,,,,,57.0,133.0,65.0,65.0,133.0,57.0,2.1,2.12,-195,-267,0,-279,157,250,242.80220890045166,242.802250623703,242.80478310585022,242.81653332710266,242.96672892570496,242.96672892570496,242.96672892570496,242.96672892570496,242.96672892570496,242.96672892570496,242.96672892570496,244.20123195648193,3,1.369032621383667,None,,,,,,,,,,,,,,,,,,7,5,2025-02-13_11h54.33.183,comp,2024.2.5,61.249045334735214,2025-02-13 11h58.21.121758 -0500,
114,114,0,critical,dwh,45.0,3.0,upper,117.0,117.0,125.0,200.0,200.0,125.0,2,1.7690520286560059,None,,,,,0,0,0,0,0,114,114,63,244.21659064292908,,,,,,,,,,,,,,,,,,,,,,,,,,,,,,,,,,,,,,,,,,,,,,,,,,,,,,,,,,,,,,,,,,,,,,,,,,,,,,,,,,117.0,117.0,125.0,200.0,200.0,125.0,3.0,3.2,-254,-256,0,8,258,284,244.20201873779297,244.20205950737,244.20467567443848,244.21659064292908,244.36691641807556,244.36691641807556,244.36691641807556,244.36691641807556,244.36691641807556,244.36691641807556,244.36691641807556,246.00147938728333,2,1.7690520286560059,None,,,,,,,,,,,,,,,,,,7,5,2025-02-13_11h54.33.183,comp,2024.2.5,61.249045334735214,2025-02-13 11h58.21.121758 -0500,
115,115,0,filler_random,None,None,None,None,None,None,None,None,None,None,2,1.1046969890594482,None,,,,,0,0,0,0,0,115,115,130,246.01667857170105,,,,,,,,,,,,,,,,,,,,,,,,,,,,,,,,,,,,,,,,,,,,,,,,,,,,,,,,,,,,,,,,,,,,,,,,,,,,,,,,,,121.41928513683055,88.77786825195625,179.9777586138795,116.39715774008738,104.27155872409388,156.2042896849456,4.0,4.2,-199,6,0,-277,232,11,246.00250220298767,246.00254344940186,246.00484657287598,246.01667857170105,246.16696882247925,246.16696882247925,246.16696882247925,246.16696882247925,246.16696882247925,246.16696882247925,246.16696882247925,247.13457989692688,2,1.1046969890594482,None,,,,,,,,,,,,,,,,,,7,5,2025-02-13_11h54.33.183,comp,2024.2.5,61.249045334735214,2025-02-13 11h58.21.121758 -0500,
116,116,0,critical,dwh,60.0,3.0,lower,55.0,55.0,57.0,133.0,133.0,57.0,3,1.1395530700683594,None,,,,,0,0,0,0,0,116,116,68,247.14986944198608,,,,,,,,,,,,,,,,,,,,,,,,,,,,,,,,,,,,,,,,,,,,,,,,,,,,,,,,,,,,,,,,,,,,,,,,,,,,,,,,,,55.0,55.0,57.0,133.0,133.0,57.0,3.0,3.1,-190,256,0,16,191,-259,247.13536882400513,247.13540840148926,247.1375274658203,247.14986944198608,247.3000590801239,247.3000590801239,247.3000590801239,247.3000590801239,247.3000590801239,247.3000590801239,247.3000590801239,248.3010003566742,3,1.1395530700683594,None,,,,,,,,,,,,,,,,,,7,5,2025-02-13_11h54.33.183,comp,2024.2.5,61.249045334735214,2025-02-13 11h58.21.121758 -0500,
117,117,0,filler_square,None,None,None,None,None,None,None,None,None,None,2,0.75838303565979,None,,,,,0,0,0,0,0,117,117,198,248.31679224967957,,,,,,,,,,,,,,,,,,,,,,,,,,,,,,,,,,,,,,,,,,,,,,,,,,,,,,,,,,,,,,,,,,,,,,,,,,,,,,,,,,79.80160200912181,83.78740398463592,97.9094873854589,97.9094873854589,57.13347868618901,87.31145274527172,2.1,2.11,-187,278,0,276,189,-269,248.30197262763977,248.30201363563538,248.30458402633667,248.31679224967957,248.46669220924377,248.46669220924377,248.46669220924377,248.46669220924377,248.46669220924377,248.46669220924377,248.46669220924377,249.0843846797943,2,0.75838303565979,None,,,,,,,,,,,,,,,,,,7,5,2025-02-13_11h54.33.183,comp,2024.2.5,61.249045334735214,2025-02-13 11h58.21.121758 -0500,
118,118,0,filler_square,None,None,None,None,None,None,None,None,None,None,3,0.7667853832244873,None,,,,,0,0,0,0,0,118,118,177,249.10014414787292,,,,,,,,,,,,,,,,,,,,,,,,,,,,,,,,,,,,,,,,,,,,,,,,,,,,,,,,,,,,,,,,,,,,,,,,,,,,,,,,,,92.76679589081934,67.6453982154504,80.15804467944993,87.87679145293768,120.26853980046948,120.26853980046948,4.0,4.2,-174,-14,0,-250,200,-18,249.0853612422943,249.0854012966156,249.08752608299255,249.10014414787292,249.2501060962677,249.2501060962677,249.2501060962677,249.2501060962677,249.2501060962677,249.2501060962677,249.2501060962677,249.88447260856628,3,0.7667853832244873,None,,,,,,,,,,,,,,,,,,7,5,2025-02-13_11h54.33.183,comp,2024.2.5,61.249045334735214,2025-02-13 11h58.21.121758 -0500,
119,119,0,filler_random,None,None,None,None,None,None,None,None,None,None,3,0.9998445510864258,None,,,,,0,0,0,0,0,119,119,145,249.8999969959259,,,,,,,,,,,,,,,,,,,,,,,,,,,,,,,,,,,,,,,,,,,,,,,,,,,,,,,,,,,,,,,,,,,,,,,,,,,,,,,,,,96.15137993493212,93.12690339581172,122.69437220902952,132.81532358253617,121.24837036366307,181.18014701582052,2.1,2.11,-209,258,0,277,253,-253,249.88540196418762,249.88544392585754,249.88806676864624,249.8999969959259,250.05017471313477,250.05017471313477,250.05017471313477,250.05017471313477,250.05017471313477,250.05017471313477,250.05017471313477,250.901385307312,3,0.9998445510864258,None,,,,,,,,,,,,,,,,,,7,5,2025-02-13_11h54.33.183,comp,2024.2.5,61.249045334735214,2025-02-13 11h58.21.121758 -0500,
120,120,0,critical,hdw,60.0,3.0,upper,200.0,125.0,100.0,100.0,125.0,200.0,3,1.8614611625671387,None,,,,,0,0,0,0,0,120,120,117,250.91676115989685,,,,,,,,,,,,,,,,,,,,,,,,,,,,,,,,,,,,,,,,,,,,,,,,,,,,,,,,,,,,,,,,,,,,,,,,,,,,,,,,,,200.0,125.0,100.0,100.0,125.0,200.0,3.0,3.2,-208,-257,0,19,246,280,250.90220665931702,250.90224599838257,250.9047601222992,250.91676115989685,251.0667850971222,251.0667850971222,251.0667850971222,251.0667850971222,251.0667850971222,251.0667850971222,251.0667850971222,252.78460669517517,3,1.8614611625671387,None,,,,,,,,,,,,,,,,,,7,5,2025-02-13_11h54.33.183,comp,2024.2.5,61.249045334735214,2025-02-13 11h58.21.121758 -0500,
121,121,0,critical,whd,45.0,2.1,upper,125.0,200.0,200.0,125.0,117.0,117.0,2,0.7533669471740723,None,,,,,0,0,0,0,0,121,121,37,252.80004811286926,,,,,,,,,,,,,,,,,,,,,,,,,,,,,,,,,,,,,,,,,,,,,,,,,,,,,,,,,,,,,,,,,,,,,,,,,,,,,,,,,,125.0,200.0,200.0,125.0,117.0,117.0,2.1,2.12,-258,-283,0,-270,217,261,252.78542757034302,252.78546953201294,252.78783893585205,252.80004811286926,252.9501051902771,252.9501051902771,252.9501051902771,252.9501051902771,252.9501051902771,252.9501051902771,252.9501051902771,253.56780886650085,2,0.7533669471740723,None,,,,,,,,,,,,,,,,,,7,5,2025-02-13_11h54.33.183,comp,2024.2.5,61.249045334735214,2025-02-13 11h58.21.121758 -0500,
122,122,0,critical,dwh,45.0,3.0,lower,65.0,65.0,57.0,133.0,133.0,57.0,3,2.18638277053833,None,,,,,0,0,0,0,0,122,122,62,253.58309864997864,,,,,,,,,,,,,,,,,,,,,,,,,,,,,,,,,,,,,,,,,,,,,,,,,,,,,,,,,,,,,,,,,,,,,,,,,,,,,,,,,,65.0,65.0,57.0,133.0,133.0,57.0,3.0,3.1,-195,258,0,-6,191,-285,253.56856894493103,253.56862020492554,253.571063041687,253.58309864997864,253.73332524299622,253.73332524299622,253.73332524299622,253.73332524299622,253.73332524299622,253.73332524299622,253.73332524299622,255.7845377922058,3,2.18638277053833,None,,,,,,,,,,,,,,,,,,7,5,2025-02-13_11h54.33.183,comp,2024.2.5,61.249045334735214,2025-02-13 11h58.21.121758 -0500,
123,123,0,critical,dhw,45.0,2.1,upper,117.0,117.0,200.0,125.0,125.0,200.0,2,1.0671334266662598,None,,,,,0,0,0,0,0,123,123,25,255.7998239994049,,,,,,,,,,,,,,,,,,,,,,,,,,,,,,,,,,,,,,,,,,,,,,,,,,,,,,,,,,,,,,,,,,,,,,,,,,,,,,,,,,117.0,117.0,200.0,125.0,125.0,200.0,2.1,2.11,-217,256,0,272,258,-280,255.7853720188141,255.78541231155396,255.7877538204193,255.7998239994049,255.9501667022705,255.9501667022705,255.9501667022705,255.9501667022705,255.9501667022705,255.9501667022705,255.9501667022705,256.8846242427826,2,1.0671334266662598,None,,,,,,,,,,,,,,,,,,7,5,2025-02-13_11h54.33.183,comp,2024.2.5,61.249045334735214,2025-02-13 11h58.21.121758 -0500,
124,124,0,filler_random,None,None,None,None,None,None,None,None,None,None,1,1.5837507247924805,None,,,,,0,0,0,0,0,124,124,143,256.8998394012451,,,,,,,,,,,,,,,,,,,,,,,,,,,,,,,,,,,,,,,,,,,,,,,,,,,,,,,,,,,,,,,,,,,,,,,,,,,,,,,,,,166.72227760508832,180.40443513681151,171.39208472034596,92.60231506949015,173.00263677581052,139.04888919731223,1.0,1.1,-713,275,-480,277,-268,265,256.88552498817444,256.88556575775146,256.8879270553589,256.8998394012451,257.0500764846802,257.0500764846802,257.0500764846802,257.0500764846802,257.0500764846802,257.0500764846802,257.0500764846802,258.4847297668457,1,1.5837507247924805,None,,,,,,,,,,,,,,,,,,7,5,2025-02-13_11h54.33.183,comp,2024.2.5,61.249045334735214,2025-02-13 11h58.21.121758 -0500,
125,125,0,filler_square,None,None,None,None,None,None,None,None,None,None,1,1.5834505558013916,None,,,,,0,0,0,0,0,125,125,197,258.5000295639038,,,,,,,,,,,,,,,,,,,,,,,,,,,,,,,,,,,,,,,,,,,,,,,,,,,,,,,,,,,,,,,,,,,,,,,,,,,,,,,,,,150.4572448615357,150.4572448615357,107.57666881573346,141.82042000958154,108.24222044031575,113.82920601150809,3.0,3.1,-242,258,0,7,224,-271,258.48563599586487,258.48567819595337,258.4882926940918,258.5000295639038,258.65004563331604,258.65004563331604,258.65004563331604,258.65004563331604,258.65004563331604,258.65004563331604,258.65004563331604,260.0847234725952,1,1.5834505558013916,None,,,,,,,,,,,,,,,,,,7,5,2025-02-13_11h54.33.183,comp,2024.2.5,61.249045334735214,2025-02-13 11h58.21.121758 -0500,
126,126,0,critical,wdh,45.0,3.0,lower,57.0,133.0,65.0,65.0,133.0,57.0,1,2.0852746963500977,None,,,,,0,0,0,0,0,126,126,74,260.0999901294708,,,,,,,,,,,,,,,,,,,,,,,,,,,,,,,,,,,,,,,,,,,,,,,,,,,,,,,,,,,,,,,,,,,,,,,,,,,,,,,,,,57.0,133.0,65.0,65.0,133.0,57.0,3.0,3.2,-195,-282,0,-11,157,264,260.08548951148987,260.08553194999695,260.0876832008362,260.0999901294708,260.24988412857056,260.24988412857056,260.24988412857056,260.24988412857056,260.24988412857056,260.24988412857056,260.24988412857056,262.2011613845825,1,2.0852746963500977,None,,,,,,,,,,,,,,,,,,7,5,2025-02-13_11h54.33.183,comp,2024.2.5,61.249045334735214,2025-02-13 11h58.21.121758 -0500,
127,127,0,catch,None,None,None,None,None,None,None,None,None,None,3,0.8100147247314453,None,,,,,0,0,0,0,0,127,127,121,262.21640706062317,,,,,,,,,,,,,,,,,,,,,,,,,,,,,,,,,,,,,,,,,,,,,,,,,,,,,,,,,,,,,,,,,,,,,,,,,,,,,,,,,,129,61,73,117,146,179,2.1,2.11,-185,276,0,277,244,-268,262.20224022865295,262.2022817134857,262.20483350753784,262.21640706062317,262.3666396141052,262.3666396141052,262.3666396141052,262.3666396141052,262.3666396141052,262.3666396141052,262.3666396141052,263.03455209732056,3,0.8100147247314453,None,,,,,,,,,,,,,,,,,,7,5,2025-02-13_11h54.33.183,comp,2024.2.5,61.249045334735214,2025-02-13 11h58.21.121758 -0500,
128,128,0,critical,whd,60.0,3.0,lower,57.0,133.0,133.0,57.0,55.0,55.0,2,0.9512388706207275,None,,,,,0,0,0,0,0,128,128,92,263.0499849319458,,,,,,,,,,,,,,,,,,,,,,,,,,,,,,,,,,,,,,,,,,,,,,,,,,,,,,,,,,,,,,,,,,,,,,,,,,,,,,,,,,57.0,133.0,133.0,57.0,55.0,55.0,3.0,3.2,-191,-270,0,-16,152,262,263.0353488922119,263.03538966178894,263.03807187080383,263.0499849319458,263.1999900341034,263.1999900341034,263.1999900341034,263.1999900341034,263.1999900341034,263.1999900341034,263.1999900341034,264.0175836086273,2,0.9512388706207275,None,,,,,,,,,,,,,,,,,,7,5,2025-02-13_11h54.33.183,comp,2024.2.5,61.249045334735214,2025-02-13 11h58.21.121758 -0500,
129,129,0,filler_square,None,None,None,None,None,None,None,None,None,None,2,0.9140329360961914,None,,,,,0,0,0,0,0,129,129,205,264.03308057785034,,,,,,,,,,,,,,,,,,,,,,,,,,,,,,,,,,,,,,,,,,,,,,,,,,,,,,,,,,,,,,,,,,,,,,,,,,,,,,,,,,67.7424181724006,91.4875406204676,108.31169485393497,108.31169485393497,57.22492929160578,87.59006855206151,4.0,4.2,-196,-5,0,-259,194,3,264.018541097641,264.01858139038086,264.02073860168457,264.03308057785034,264.1831741333008,264.1831741333008,264.1831741333008,264.1831741333008,264.1831741333008,264.1831741333008,264.1831741333008,264.95116567611694,2,0.9140329360961914,None,,,,,,,,,,,,,,,,,,7,5,2025-02-13_11h54.33.183,comp,2024.2.5,61.249045334735214,2025-02-13 11h58.21.121758 -0500,
130,130,0,filler_square,None,None,None,None,None,None,None,None,None,None,2,0.8028931617736816,None,,,,,0,0,0,0,0,130,130,181,264.96666622161865,,,,,,,,,,,,,,,,,,,,,,,,,,,,,,,,,,,,,,,,,,,,,,,,,,,,,,,,,,,,,,,,,,,,,,,,,,,,,,,,,,79.63133722288234,99.03228425866214,140.10333985652295,140.10333985652295,89.18037082867362,83.52226380558284,1.0,1.2,-216,-2,0,-6,208,4,264.95213651657104,264.9521791934967,264.9543468952179,264.96666622161865,265.1165645122528,265.1165645122528,265.1165645122528,265.1165645122528,265.1165645122528,265.1165645122528,265.1165645122528,265.7843887805939,2,0.8028931617736816,None,,,,,,,,,,,,,,,,,,7,5,2025-02-13_11h54.33.183,comp,2024.2.5,61.249045334735214,2025-02-13 11h58.21.121758 -0500,
131,131,0,critical,hwd,45.0,2.1,upper,200.0,125.0,125.0,200.0,117.0,117.0,2,1.46724534034729,None,,,,,0,0,0,0,0,131,131,17,265.79973340034485,,,,,,,,,,,,,,,,,,,,,,,,,,,,,,,,,,,,,,,,,,,,,,,,,,,,,,,,,,,,,,,,,,,,,,,,,,,,,,,,,,200.0,125.0,125.0,200.0,117.0,117.0,2.1,2.12,-258,-254,0,-252,254,278,265.78520584106445,265.7852487564087,265.78783082962036,265.79973340034485,265.9499807357788,265.9499807357788,265.9499807357788,265.9499807357788,265.9499807357788,265.9499807357788,265.9499807357788,267.2845220565796,2,1.46724534034729,None,,,,,,,,,,,,,,,,,,7,5,2025-02-13_11h54.33.183,comp,2024.2.5,61.249045334735214,2025-02-13 11h58.21.121758 -0500,
132,132,0,critical,dwh,45.0,2.1,upper,117.0,117.0,125.0,200.0,200.0,125.0,2,1.2853913307189941,None,,,,,0,0,0,0,0,132,132,29,267.299747467041,,,,,,,,,,,,,,,,,,,,,,,,,,,,,,,,,,,,,,,,,,,,,,,,,,,,,,,,,,,,,,,,,,,,,,,,,,,,,,,,,,117.0,117.0,125.0,200.0,200.0,125.0,2.1,2.11,-254,262,0,277,258,-261,267.2852931022644,267.2853333950043,267.2879445552826,267.299747467041,267.44996881484985,267.44996881484985,267.44996881484985,267.44996881484985,267.44996881484985,267.44996881484985,267.44996881484985,268.60093808174133,2,1.2853913307189941,None,,,,,,,,,,,,,,,,,,7,5,2025-02-13_11h54.33.183,comp,2024.2.5,61.249045334735214,2025-02-13 11h58.21.121758 -0500,
133,133,0,filler_random,None,None,None,None,None,None,None,None,None,None,2,0.8099522590637207,None,,,,,0,0,0,0,0,133,133,142,268.61627674102783,,,,,,,,,,,,,,,,,,,,,,,,,,,,,,,,,,,,,,,,,,,,,,,,,,,,,,,,,,,,,,,,,,,,,,,,,,,,,,,,,,59.134083299476686,97.49430802132929,169.41055074809452,187.88919137468372,122.48208468626028,141.53342390574159,1.0,1.1,-719,259,-480,257,-219,268,268.6018090248108,268.60184693336487,268.6042580604553,268.61627674102783,268.76678919792175,268.76678919792175,268.76678919792175,268.76678919792175,268.76678919792175,268.76678919792175,268.76678919792175,269.4344835281372,2,0.8099522590637207,None,,,,,,,,,,,,,,,,,,7,5,2025-02-13_11h54.33.183,comp,2024.2.5,61.249045334735214,2025-02-13 11h58.21.121758 -0500,
134,134,0,critical,dwh,45.0,2.1,lower,65.0,65.0,57.0,133.0,133.0,57.0,3,1.1280896663665771,None,,,,,0,0,0,0,0,134,134,4,269.44999146461487,,,,,,,,,,,,,,,,,,,,,,,,,,,,,,,,,,,,,,,,,,,,,,,,,,,,,,,,,,,,,,,,,,,,,,,,,,,,,,,,,,65.0,65.0,57.0,133.0,133.0,57.0,2.1,2.11,-195,280,0,285,191,-288,269.4352788925171,269.4353187084198,269.4379172325134,269.44999146461487,269.599716424942,269.599716424942,269.599716424942,269.599716424942,269.599716424942,269.599716424942,269.599716424942,270.58437991142273,3,1.1280896663665771,None,,,,,,,,,,,,,,,,,,7,5,2025-02-13_11h54.33.183,comp,2024.2.5,61.249045334735214,2025-02-13 11h58.21.121758 -0500,
135,135,0,critical,hwd,45.0,1.0,lower,133.0,57.0,57.0,133.0,65.0,65.0,1,0.9783468246459961,None,,,,,0,0,0,0,0,135,135,96,270.59984040260315,,,,,,,,,,,,,,,,,,,,,,,,,,,,,,,,,,,,,,,,,,,,,,,,,,,,,,,,,,,,,,,,,,,,,,,,,,,,,,,,,,133.0,57.0,57.0,133.0,65.0,65.0,1.0,1.2,-191,-9,0,-4,195,7,270.5851845741272,270.5852255821228,270.5878732204437,270.59984040260315,270.74971652030945,270.74971652030945,270.74971652030945,270.74971652030945,270.74971652030945,270.74971652030945,270.74971652030945,271.58405208587646,1,0.9783468246459961,None,,,,,,,,,,,,,,,,,,7,5,2025-02-13_11h54.33.183,comp,2024.2.5,61.249045334735214,2025-02-13 11h58.21.121758 -0500,
136,136,0,critical,hdw,45.0,2.1,upper,200.0,125.0,117.0,117.0,125.0,200.0,3,1.3467118740081787,None,,,,,0,0,0,0,0,136,136,21,271.5997724533081,,,,,,,,,,,,,,,,,,,,,,,,,,,,,,,,,,,,,,,,,,,,,,,,,,,,,,,,,,,,,,,,,,,,,,,,,,,,,,,,,,200.0,125.0,117.0,117.0,125.0,200.0,2.1,2.12,-217,-277,0,-251,254,281,271.58481645584106,271.5848557949066,271.58722853660583,271.5997724533081,271.74992275238037,271.74992275238037,271.74992275238037,271.74992275238037,271.74992275238037,271.74992275238037,271.74992275238037,272.95125913619995,3,1.3467118740081787,None,,,,,,,,,,,,,,,,,,7,5,2025-02-13_11h54.33.183,comp,2024.2.5,61.249045334735214,2025-02-13 11h58.21.121758 -0500,
137,137,0,critical,whd,60.0,2.1,lower,57.0,133.0,133.0,57.0,55.0,55.0,2,0.8999381065368652,None,,,,,0,0,0,0,0,137,137,14,272.9665777683258,,,,,,,,,,,,,,,,,,,,,,,,,,,,,,,,,,,,,,,,,,,,,,,,,,,,,,,,,,,,,,,,,,,,,,,,,,,,,,,,,,57.0,133.0,133.0,57.0,55.0,55.0,2.1,2.12,-191,-277,0,-270,152,282,272.952024936676,272.9520642757416,272.9541313648224,272.9665777683258,273.1163523197174,273.1163523197174,273.1163523197174,273.1163523197174,273.1163523197174,273.1163523197174,273.1163523197174,273.8677854537964,2,0.8999381065368652,None,,,,,,,,,,,,,,,,,,7,5,2025-02-13_11h54.33.183,comp,2024.2.5,61.249045334735214,2025-02-13 11h58.21.121758 -0500,
138,138,0,filler_square,None,None,None,None,None,None,None,None,None,None,3,0.9593379497528076,None,,,,,0,0,0,0,0,138,138,195,273.8831136226654,,,,,,,,,,,,,,,,,,,,,,,,,,,,,,,,,,,,,,,,,,,,,,,,,,,,,,,,,,,,,,,,,,,,,,,,,,,,,,,,,,71.6952332633094,59.11216517269146,60.1152767834844,61.408292028619876,83.93427228572727,83.93427228572727,3.0,3.1,-156,266,0,0,169,-255,273.8687720298767,273.8688135147095,273.8711779117584,273.8831136226654,274.0330157279968,274.0330157279968,274.0330157279968,274.0330157279968,274.0330157279968,274.0330157279968,274.0330157279968,274.8511395454407,3,0.9593379497528076,None,,,,,,,,,,,,,,,,,,7,5,2025-02-13_11h54.33.183,comp,2024.2.5,61.249045334735214,2025-02-13 11h58.21.121758 -0500,
139,139,0,critical,wdh,45.0,4.0,lower,57.0,133.0,65.0,65.0,133.0,57.0,3,1.2332289218902588,None,,,,,0,0,0,0,0,139,139,76,274.86650013923645,,,,,,,,,,,,,,,,,,,,,,,,,,,,,,,,,,,,,,,,,,,,,,,,,,,,,,,,,,,,,,,,,,,,,,,,,,,,,,,,,,57.0,133.0,65.0,65.0,133.0,57.0,4.0,4.1,-195,-269,0,-3,157,-259,274.85191893577576,274.85196018218994,274.8540470600128,274.86650013923645,275.01627683639526,275.01627683639526,275.01627683639526,275.01627683639526,275.01627683639526,275.01627683639526,275.01627683639526,276.10101294517517,3,1.2332289218902588,None,,,,,,,,,,,,,,,,,,7,5,2025-02-13_11h54.33.183,comp,2024.2.5,61.249045334735214,2025-02-13 11h58.21.121758 -0500,
