thisN,thisTrialN,thisRepN,effect,order,distance,config,diag,h_1,w_1,h_2,w_2,h_3,w_3,rect_choice.keys,rect_choice.rt,rect_choice.duration,instructions_loop.thisRepN,instructions_loop.thisTrialN,instructions_loop.thisN,instructions_loop.thisIndex,blocks.thisRepN,blocks.thisTrialN,blocks.thisN,blocks.thisIndex,trials.thisRepN,trials.thisTrialN,trials.thisN,trials.thisIndex,thisRow.t,notes,consent.started,agree_button.started,decline_button.started,consent_img.started,mouse.started,consent.stopped,agree_button.numClicks,agree_button.timesOn,agree_button.timesOff,decline_button.numClicks,decline_button.timesOn,decline_button.timesOff,mouse.x,mouse.y,mouse.leftButton,mouse.midButton,mouse.rightButton,mouse.time,mouse.clicked_name,exp_params.started,exp_params.stopped,welcome.started,welcome_text.started,welcome_text.stopped,welcome.stopped,instructions_1.started,instructions_1_text_1.started,instructions_1_text_2.started,key_resp.started,instructions_1.stopped,instructions_loop.key_resp.keys,instructions_loop.key_resp.rt,instructions_loop.key_resp.duration,instructions_2.started,instructions_2_text_1.started,instructions_2_text_2.started,key_resp_2.started,instructions_2.stopped,instructions_loop.key_resp_2.keys,instructions_loop.key_resp_2.rt,instructions_loop.key_resp_2.duration,instructions_3.started,instructions_3_text_1.started,r1_instr3.started,r2_instr3.started,r3_instr3.started,r1_instr3_label.started,r2_instr3_label.started,r3_instr3_label.started,instructions_3_text_3.started,instructions_3_text_4.started,key_resp_3.started,instructions_3.stopped,instructions_loop.key_resp_3.keys,instructions_loop.key_resp_3.rt,instructions_loop.key_resp_3.duration,instructions_4.started,instructions_4_text_1.started,instructions_4_text_3.started,instructions_4_text_2.started,key_resp_4.started,instructions_4.stopped,instructions_loop.key_resp_4.keys,instructions_loop.key_resp_4.rt,instructions_loop.key_resp_4.duration,instructions_5.started,instructions_5_text_1.started,instructions_5_text_2.started,key_resp_5.started,instructions_5.stopped,instructions_loop.key_resp_5.keys,instructions_loop.key_resp_5.rt,instructions_loop.key_resp_5.duration,start_exp.started,start_exp_text.started,key_resp_6.started,start_exp.stopped,key_resp_6.keys,key_resp_6.rt,key_resp_6.duration,h_1_tmp,w_1_tmp,h_2_tmp,w_2_tmp,h_3_tmp,w_3_tmp,config_tmp,config_tmp_1,r_1_x,r_1_y,r_2_x,r_2_y,r_3_x,r_3_y,pre_trial.started,pre_trial.stopped,choice_trial.started,rect_choice.started,r_1.started,r_2.started,r_3.started,r_1_label.started,r_2_label.started,r_3_label.started,prompt.started,choice_trial.stopped,trials.rect_choice.keys,trials.rect_choice.rt,trials.rect_choice.duration,end_block.started,end_block_text.started,end_block.stopped,end.started,end_text.started,key_resp_7.started,end.stopped,key_resp_7.keys,key_resp_7.rt,key_resp_7.duration,debriefing.started,debrief_form.started,end_debrief.started,debriefing.stopped,end_debrief.keys,end_debrief.rt,end_debrief.duration,participant,computer,date,expName,psychopyVersion,frameRate,expStart,
,,,,,,,,,,,,,,,,,,,,,,,,,,,,,,,0.014632225036621094,0.0491642951965332,0.0491642951965332,0.0491642951965332,0.014451980590820312,21.57603168487549,1,[21.524110317230225],[21.524132251739502],0,,,[-65.0],[-510.0],[1],[0],[0],[21.56094980239868],['agree_button'],,,,,,,,,,,,,,,,,,,,,,,,,,,,,,,,,,,,,,,,,,,,,,,,,,,,,,,,,,,,,,,,,,,,,,,,,,,,,,,,,,,,,,,,,,,,,,,,,,,,,,,,,,,,8,6,2025-02-13_11h54.22.936,comp,2024.2.5,58.379332374797656,2025-02-13 11h58.46.869410 -0500,
,,,,,,,,,,,,,,,,,,,,,,,,,,,,,,,,,,,,,,,,,,,,,,,,,,21.576586723327637,21.5766544342041,,,,,,,,,,,,,,,,,,,,,,,,,,,,,,,,,,,,,,,,,,,,,,,,,,,,,,,,,,,,,,,,,,,,,,,,,,,,,,,,,,,,,,,,,,,,,,,,,,,,,,,,,,8,6,2025-02-13_11h54.22.936,comp,2024.2.5,58.379332374797656,2025-02-13 11h58.46.869410 -0500,
,,,,,,,,,,,,,,,,,,,,,,,,,,,,,,,,,,,,,,,,,,,,,,,,,,,,21.576698780059814,21.591452836990356,23.595736980438232,23.575120449066162,,,,,,,,,,,,,,,,,,,,,,,,,,,,,,,,,,,,,,,,,,,,,,,,,,,,,,,,,,,,,,,,,,,,,,,,,,,,,,,,,,,,,,,,,,,,,,,,,,,,,,8,6,2025-02-13_11h54.22.936,comp,2024.2.5,58.379332374797656,2025-02-13 11h58.46.869410 -0500,
0,0,0,,,,,,,,,,,,,,,0,0,0,0,,,,,,,,,23.595736980438232,,,,,,,,,,,,,,,,,,,,,,,,,,,23.576120853424072,23.595736980438232,23.595736980438232,25.08788537979126,29.807677030563354,space,4.6715989112854,None,29.807863473892212,29.823018312454224,29.823018312454224,31.30915141105652,38.26257872581482,space,6.938159942626953,None,38.26272249221802,38.314478158950806,38.314478158950806,38.314478158950806,38.314478158950806,38.314478158950806,38.314478158950806,38.314478158950806,38.314478158950806,38.314478158950806,39.769864559173584,45.38613796234131,space,5.605300188064575,None,45.3863000869751,45.40297222137451,45.40297222137451,45.40297222137451,46.8944947719574,59.54999279975891,space,12.640574216842651,None,59.55014395713806,59.56532287597656,59.56532287597656,61.05189561843872,63.01866698265076,space,1.9476618766784668,None,63.01890850067139,63.03392577171326,63.03392577171326,64.4199652671814,space,1.3814215660095215,None,,,,,,,,,,,,,,,,,,,,,,,,,,,,,,,,,,,,,,,,,,,,,,,8,6,2025-02-13_11h54.22.936,comp,2024.2.5,58.379332374797656,2025-02-13 11h58.46.869410 -0500,
0,0,0,critical,dhw,45.0,1.0,upper,117.0,117.0,200.0,125.0,125.0,200.0,2,6.632004499435425,None,,,,,0,0,0,0,0,0,0,49,64.51928663253784,,,,,,,,,,,,,,,,,,,,,,,,,,,,,,,,,,,,,,,,,,,,,,,,,,,,,,,,,,,,,,,,,,,,,,,,,,,,,,,,,,117.0,117.0,200.0,125.0,125.0,200.0,1.0,1.2,-217,-17,0,16,258,-13,64.50273752212524,64.5027666091919,64.50387740135193,64.51928663253784,64.68401670455933,64.68401670455933,64.68401670455933,64.68401670455933,64.68401670455933,64.68401670455933,64.68401670455933,71.15636110305786,2,6.632004499435425,None,,,,,,,,,,,,,,,,,,8,6,2025-02-13_11h54.22.936,comp,2024.2.5,58.379332374797656,2025-02-13 11h58.46.869410 -0500,
1,1,0,filler_random,None,None,None,None,None,None,None,None,None,None,1,4.483705282211304,None,,,,,0,0,0,0,0,1,1,132,71.17142343521118,,,,,,,,,,,,,,,,,,,,,,,,,,,,,,,,,,,,,,,,,,,,,,,,,,,,,,,,,,,,,,,,,,,,,,,,,,,,,,,,,,157.10835303719722,180.5416067297414,92.0183392608708,158.3543048364732,140.84069034581614,117.54941526824689,3.0,3.2,-265,-265,0,10,234,264,71.15790057182312,71.15795946121216,71.16029787063599,71.17142343521118,71.31853032112122,71.31853032112122,71.31853032112122,71.31853032112122,71.31853032112122,71.31853032112122,71.31853032112122,75.65753102302551,1,4.483705282211304,None,,,,,,,,,,,,,,,,,,8,6,2025-02-13_11h54.22.936,comp,2024.2.5,58.379332374797656,2025-02-13 11h58.46.869410 -0500,
2,2,0,critical,dhw,60.0,2.1,upper,100.0,100.0,200.0,125.0,125.0,200.0,3,7.301929712295532,None,,,,,0,0,0,0,0,2,2,27,75.6733934879303,,,,,,,,,,,,,,,,,,,,,,,,,,,,,,,,,,,,,,,,,,,,,,,,,,,,,,,,,,,,,,,,,,,,,,,,,,,,,,,,,,100.0,100.0,200.0,125.0,125.0,200.0,2.1,2.11,-208,274,0,269,258,-250,75.6591248512268,75.65920782089233,75.66263937950134,75.6733934879303,75.82343292236328,75.82343292236328,75.82343292236328,75.82343292236328,75.82343292236328,75.82343292236328,75.82343292236328,82.99299621582031,3,7.301929712295532,None,,,,,,,,,,,,,,,,,,8,6,2025-02-13_11h54.22.936,comp,2024.2.5,58.379332374797656,2025-02-13 11h58.46.869410 -0500,
3,3,0,critical,dwh,45.0,4.0,lower,65.0,65.0,57.0,133.0,133.0,57.0,2,6.654710531234741,None,,,,,0,0,0,0,0,3,3,64,83.00815987586975,,,,,,,,,,,,,,,,,,,,,,,,,,,,,,,,,,,,,,,,,,,,,,,,,,,,,,,,,,,,,,,,,,,,,,,,,,,,,,,,,,65.0,65.0,57.0,133.0,133.0,57.0,4.0,4.2,-195,-11,0,-255,191,-1,82.99452090263367,82.99459886550903,82.99790835380554,83.00815987586975,83.15861439704895,83.15861439704895,83.15861439704895,83.15861439704895,83.15861439704895,83.15861439704895,83.15861439704895,89.67850351333618,2,6.654710531234741,None,,,,,,,,,,,,,,,,,,8,6,2025-02-13_11h54.22.936,comp,2024.2.5,58.379332374797656,2025-02-13 11h58.46.869410 -0500,
4,4,0,filler_square,None,None,None,None,None,None,None,None,None,None,1,2.4478182792663574,None,,,,,0,0,0,0,0,4,4,177,89.69507026672363,,,,,,,,,,,,,,,,,,,,,,,,,,,,,,,,,,,,,,,,,,,,,,,,,,,,,,,,,,,,,,,,,,,,,,,,,,,,,,,,,,141.06483972369017,141.06483972369017,82.59134667946736,104.15818022818553,113.84822212740217,100.51530825425243,1.0,1.2,-219,-5,0,19,198,-15,89.68056130409241,89.6806423664093,89.68381547927856,89.69507026672363,89.84802389144897,89.84802389144897,89.84802389144897,89.84802389144897,89.84802389144897,89.84802389144897,89.84802389144897,92.14585995674133,1,2.4478182792663574,None,,,,,,,,,,,,,,,,,,8,6,2025-02-13_11h54.22.936,comp,2024.2.5,58.379332374797656,2025-02-13 11h58.46.869410 -0500,
5,5,0,critical,dhw,60.0,1.0,upper,100.0,100.0,200.0,125.0,125.0,200.0,3,7.333611011505127,None,,,,,0,0,0,0,0,5,5,55,92.16126322746277,,,,,,,,,,,,,,,,,,,,,,,,,,,,,,,,,,,,,,,,,,,,,,,,,,,,,,,,,,,,,,,,,,,,,,,,,,,,,,,,,,100.0,100.0,200.0,125.0,125.0,200.0,1.0,1.2,-208,-15,0,-14,258,0,92.14734148979187,92.1474187374115,92.15059089660645,92.16126322746277,92.31049919128418,92.31049919128418,92.31049919128418,92.31049919128418,92.31049919128418,92.31049919128418,92.31049919128418,99.49887037277222,3,7.333611011505127,None,,,,,,,,,,,,,,,,,,8,6,2025-02-13_11h54.22.936,comp,2024.2.5,58.379332374797656,2025-02-13 11h58.46.869410 -0500,
6,6,0,critical,hdw,60.0,4.0,lower,133.0,57.0,55.0,55.0,57.0,133.0,3,4.503207445144653,None,,,,,0,0,0,0,0,6,6,118,99.51993036270142,,,,,,,,,,,,,,,,,,,,,,,,,,,,,,,,,,,,,,,,,,,,,,,,,,,,,,,,,,,,,,,,,,,,,,,,,,,,,,,,,,133.0,57.0,55.0,55.0,57.0,133.0,4.0,4.2,-152,14,0,-265,190,7,99.50044250488281,99.50056672096252,99.50417137145996,99.51993036270142,99.67086482048035,99.67086482048035,99.67086482048035,99.67086482048035,99.67086482048035,99.67086482048035,99.67086482048035,104.03391027450562,3,4.503207445144653,None,,,,,,,,,,,,,,,,,,8,6,2025-02-13_11h54.22.936,comp,2024.2.5,58.379332374797656,2025-02-13 11h58.46.869410 -0500,
7,7,0,filler_random,None,None,None,None,None,None,None,None,None,None,2,6.690540790557861,None,,,,,0,0,0,0,0,7,7,139,104.0520830154419,,,,,,,,,,,,,,,,,,,,,,,,,,,,,,,,,,,,,,,,,,,,,,,,,,,,,,,,,,,,,,,,,,,,,,,,,,,,,,,,,,103.47849183583052,133.33267886893856,102.86044196617537,127.9459822766043,74.28172881802863,58.94668274249807,3.0,3.1,-227,269,0,6,189,-271,104.03566360473633,104.03586745262146,104.03920435905457,104.0520830154419,104.1983253955841,104.1983253955841,104.1983253955841,104.1983253955841,104.1983253955841,104.1983253955841,104.1983253955841,110.75183606147766,2,6.690540790557861,None,,,,,,,,,,,,,,,,,,8,6,2025-02-13_11h54.22.936,comp,2024.2.5,58.379332374797656,2025-02-13 11h58.46.869410 -0500,
8,8,0,critical,hwd,60.0,2.1,lower,133.0,57.0,57.0,133.0,55.0,55.0,2,9.549746036529541,None,,,,,0,0,0,0,0,8,8,18,110.76877784729004,,,,,,,,,,,,,,,,,,,,,,,,,,,,,,,,,,,,,,,,,,,,,,,,,,,,,,,,,,,,,,,,,,,,,,,,,,,,,,,,,,133.0,57.0,57.0,133.0,55.0,55.0,2.1,2.11,-191,272,0,270,190,-277,110.7534704208374,110.75354886054993,110.7571976184845,110.76877784729004,110.91851425170898,110.91851425170898,110.91851425170898,110.91851425170898,110.91851425170898,110.91851425170898,110.91851425170898,120.32062935829163,2,9.549746036529541,None,,,,,,,,,,,,,,,,,,8,6,2025-02-13_11h54.22.936,comp,2024.2.5,58.379332374797656,2025-02-13 11h58.46.869410 -0500,
9,9,0,critical,hdw,60.0,2.1,lower,133.0,57.0,55.0,55.0,57.0,133.0,3,3.5821962356567383,None,,,,,0,0,0,0,0,9,9,46,120.33631372451782,,,,,,,,,,,,,,,,,,,,,,,,,,,,,,,,,,,,,,,,,,,,,,,,,,,,,,,,,,,,,,,,,,,,,,,,,,,,,,,,,,133.0,57.0,55.0,55.0,57.0,133.0,2.1,2.12,-152,-274,0,-277,190,272,120.32215452194214,120.32223343849182,120.32559609413147,120.33631372451782,120.48773837089539,120.48773837089539,120.48773837089539,120.48773837089539,120.48773837089539,120.48773837089539,120.48773837089539,123.9214117527008,3,3.5821962356567383,None,,,,,,,,,,,,,,,,,,8,6,2025-02-13_11h54.22.936,comp,2024.2.5,58.379332374797656,2025-02-13 11h58.46.869410 -0500,
10,10,0,filler_square,None,None,None,None,None,None,None,None,None,None,2,4.773495674133301,None,,,,,0,0,0,0,0,10,10,202,123.9377326965332,,,,,,,,,,,,,,,,,,,,,,,,,,,,,,,,,,,,,,,,,,,,,,,,,,,,,,,,,,,,,,,,,,,,,,,,,,,,,,,,,,65.07215329878913,70.29475137316352,95.66236722887189,95.66236722887189,91.38895021424739,92.09934285393501,3.0,3.2,-179,-269,0,-1,190,286,123.92322111129761,123.9233570098877,123.9266939163208,123.9377326965332,124.08637738227844,124.08637738227844,124.08637738227844,124.08637738227844,124.08637738227844,124.08637738227844,124.08637738227844,128.71322965621948,2,4.773495674133301,None,,,,,,,,,,,,,,,,,,8,6,2025-02-13_11h54.22.936,comp,2024.2.5,58.379332374797656,2025-02-13 11h58.46.869410 -0500,
11,11,0,critical,hwd,45.0,4.0,lower,133.0,57.0,57.0,133.0,65.0,65.0,2,3.2334299087524414,None,,,,,0,0,0,0,0,11,11,100,128.7337305545807,,,,,,,,,,,,,,,,,,,,,,,,,,,,,,,,,,,,,,,,,,,,,,,,,,,,,,,,,,,,,,,,,,,,,,,,,,,,,,,,,,133.0,57.0,57.0,133.0,65.0,65.0,4.0,4.2,-191,8,0,-253,195,12,128.71476197242737,128.71487140655518,128.71810030937195,128.7337305545807,128.8727171421051,128.8727171421051,128.8727171421051,128.8727171421051,128.8727171421051,128.8727171421051,128.8727171421051,131.9772334098816,2,3.2334299087524414,None,,,,,,,,,,,,,,,,,,8,6,2025-02-13_11h54.22.936,comp,2024.2.5,58.379332374797656,2025-02-13 11h58.46.869410 -0500,
12,12,0,critical,hdw,45.0,2.1,lower,133.0,57.0,65.0,65.0,57.0,133.0,3,7.33339262008667,None,,,,,0,0,0,0,0,12,12,44,131.9930760860443,,,,,,,,,,,,,,,,,,,,,,,,,,,,,,,,,,,,,,,,,,,,,,,,,,,,,,,,,,,,,,,,,,,,,,,,,,,,,,,,,,133.0,57.0,65.0,65.0,57.0,133.0,2.1,2.12,-157,-254,0,-254,195,263,131.97882270812988,131.97890257835388,131.98229503631592,131.9930760860443,132.14464354515076,132.14464354515076,132.14464354515076,132.14464354515076,132.14464354515076,132.14464354515076,132.14464354515076,139.32837176322937,3,7.33339262008667,None,,,,,,,,,,,,,,,,,,8,6,2025-02-13_11h54.22.936,comp,2024.2.5,58.379332374797656,2025-02-13 11h58.46.869410 -0500,
13,13,0,critical,wdh,45.0,2.1,upper,125.0,200.0,117.0,117.0,200.0,125.0,1,11.122262239456177,None,,,,,0,0,0,0,0,13,13,9,139.34809160232544,,,,,,,,,,,,,,,,,,,,,,,,,,,,,,,,,,,,,,,,,,,,,,,,,,,,,,,,,,,,,,,,,,,,,,,,,,,,,,,,,,125.0,200.0,117.0,117.0,200.0,125.0,2.1,2.12,-254,-273,0,-280,217,274,139.33006525039673,139.33019137382507,139.33308005332947,139.34809160232544,139.49211049079895,139.49211049079895,139.49211049079895,139.49211049079895,139.49211049079895,139.49211049079895,139.49211049079895,150.4828975200653,1,11.122262239456177,None,,,,,,,,,,,,,,,,,,8,6,2025-02-13_11h54.22.936,comp,2024.2.5,58.379332374797656,2025-02-13 11h58.46.869410 -0500,
14,14,0,filler_square,None,None,None,None,None,None,None,None,None,None,3,3.355149745941162,None,,,,,0,0,0,0,0,14,14,199,150.49910807609558,,,,,,,,,,,,,,,,,,,,,,,,,,,,,,,,,,,,,,,,,,,,,,,,,,,,,,,,,,,,,,,,,,,,,,,,,,,,,,,,,,59.801813873272785,125.99157518094856,151.47828411544384,81.39239767059289,151.81716793748933,151.81716793748933,2.2,2.22,-200,251,0,-276,213,-269,150.4850800037384,150.48516130447388,150.48859453201294,150.49910807609558,150.65204000473022,150.65204000473022,150.65204000473022,150.65204000473022,150.65204000473022,150.65204000473022,150.65204000473022,153.86392831802368,3,3.355149745941162,None,,,,,,,,,,,,,,,,,,8,6,2025-02-13_11h54.22.936,comp,2024.2.5,58.379332374797656,2025-02-13 11h58.46.869410 -0500,
15,15,0,catch,None,None,None,None,None,None,None,None,None,None,1,3.0855448246002197,None,,,,,0,0,0,0,0,15,15,122,153.880943775177,,,,,,,,,,,,,,,,,,,,,,,,,,,,,,,,,,,,,,,,,,,,,,,,,,,,,,,,,,,,,,,,,,,,,,,,,,,,,,,,,,135,190,58,132,89,101,3.0,3.1,-257,257,0,-11,212,-260,153.86594414710999,153.86602520942688,153.86940026283264,153.880943775177,154.0306694507599,154.0306694507599,154.0306694507599,154.0306694507599,154.0306694507599,154.0306694507599,154.0306694507599,156.97887778282166,1,3.0855448246002197,None,,,,,,,,,,,,,,,,,,8,6,2025-02-13_11h54.22.936,comp,2024.2.5,58.379332374797656,2025-02-13 11h58.46.869410 -0500,
16,16,0,critical,hdw,60.0,4.0,upper,200.0,125.0,100.0,100.0,125.0,200.0,3,5.46758508682251,None,,,,,0,0,0,0,0,16,16,119,156.99481892585754,,,,,,,,,,,,,,,,,,,,,,,,,,,,,,,,,,,,,,,,,,,,,,,,,,,,,,,,,,,,,,,,,,,,,,,,,,,,,,,,,,200.0,125.0,100.0,100.0,125.0,200.0,4.0,4.2,-208,-11,0,-286,246,-1,156.98037600517273,156.98045468330383,156.98329639434814,156.99481892585754,157.13131308555603,157.13131308555603,157.13131308555603,157.13131308555603,157.13131308555603,157.13131308555603,157.13131308555603,162.4672875404358,3,5.46758508682251,None,,,,,,,,,,,,,,,,,,8,6,2025-02-13_11h54.22.936,comp,2024.2.5,58.379332374797656,2025-02-13 11h58.46.869410 -0500,
17,17,0,critical,hwd,45.0,2.1,lower,133.0,57.0,57.0,133.0,65.0,65.0,2,4.934386253356934,None,,,,,0,0,0,0,0,17,17,16,162.487890958786,,,,,,,,,,,,,,,,,,,,,,,,,,,,,,,,,,,,,,,,,,,,,,,,,,,,,,,,,,,,,,,,,,,,,,,,,,,,,,,,,,133.0,57.0,57.0,133.0,65.0,65.0,2.1,2.11,-191,265,0,257,195,-254,162.46890020370483,162.46900534629822,162.47254610061646,162.487890958786,162.63038969039917,162.63038969039917,162.63038969039917,162.63038969039917,162.63038969039917,162.63038969039917,162.63038969039917,167.4252758026123,2,4.934386253356934,None,,,,,,,,,,,,,,,,,,8,6,2025-02-13_11h54.22.936,comp,2024.2.5,58.379332374797656,2025-02-13 11h58.46.869410 -0500,
18,18,0,critical,dwh,60.0,1.0,upper,100.0,100.0,125.0,200.0,200.0,125.0,2,2.5723273754119873,None,,,,,0,0,0,0,0,18,18,67,167.4428379535675,,,,,,,,,,,,,,,,,,,,,,,,,,,,,,,,,,,,,,,,,,,,,,,,,,,,,,,,,,,,,,,,,,,,,,,,,,,,,,,,,,100.0,100.0,125.0,200.0,200.0,125.0,1.0,1.3,234,-254,480,-286,738,-252,167.42674708366394,167.42687702178955,167.42967915534973,167.4428379535675,167.58692908287048,167.58692908287048,167.58692908287048,167.58692908287048,167.58692908287048,167.58692908287048,167.58692908287048,170.02038717269897,2,2.5723273754119873,None,,,,,,,,,,,,,,,,,,8,6,2025-02-13_11h54.22.936,comp,2024.2.5,58.379332374797656,2025-02-13 11h58.46.869410 -0500,
19,19,0,critical,whd,45.0,2.1,lower,57.0,133.0,133.0,57.0,65.0,65.0,1,4.0751633644104,None,,,,,0,0,0,0,0,19,19,36,170.03589296340942,,,,,,,,,,,,,,,,,,,,,,,,,,,,,,,,,,,,,,,,,,,,,,,,,,,,,,,,,,,,,,,,,,,,,,,,,,,,,,,,,,57.0,133.0,133.0,57.0,65.0,65.0,2.1,2.12,-191,-286,0,-288,157,273,170.02193546295166,170.0220422744751,170.02523922920227,170.03589296340942,170.190997838974,170.190997838974,170.190997838974,170.190997838974,170.190997838974,170.190997838974,170.190997838974,174.1189386844635,1,4.0751633644104,None,,,,,,,,,,,,,,,,,,8,6,2025-02-13_11h54.22.936,comp,2024.2.5,58.379332374797656,2025-02-13 11h58.46.869410 -0500,
20,20,0,filler_square,None,None,None,None,None,None,None,None,None,None,2,4.79830002784729,None,,,,,0,0,0,0,0,20,20,192,174.13587880134583,,,,,,,,,,,,,,,,,,,,,,,,,,,,,,,,,,,,,,,,,,,,,,,,,,,,,,,,,,,,,,,,,,,,,,,,,,,,,,,,,,66.9136086624984,58.2059617346615,72.83697078264102,68.83601806380254,73.89083911182355,73.89083911182355,2.1,2.12,-160,-255,0,-255,167,262,174.12066555023193,174.12074255943298,174.12387132644653,174.13587880134583,174.28668189048767,174.28668189048767,174.28668189048767,174.28668189048767,174.28668189048767,174.28668189048767,174.28668189048767,178.9386169910431,2,4.79830002784729,None,,,,,,,,,,,,,,,,,,8,6,2025-02-13_11h54.22.936,comp,2024.2.5,58.379332374797656,2025-02-13 11h58.46.869410 -0500,
21,21,0,filler_square,None,None,None,None,None,None,None,None,None,None,2,5.0023229122161865,None,,,,,0,0,0,0,0,21,21,180,178.95567560195923,,,,,,,,,,,,,,,,,,,,,,,,,,,,,,,,,,,,,,,,,,,,,,,,,,,,,,,,,,,,,,,,,,,,,,,,,,,,,,,,,,170.69805135739796,93.59674488046795,198.59637839980672,198.59637839980672,180.00558729623526,170.48997302896092,3.0,3.2,-242,-255,0,-12,281,276,178.94053268432617,178.9406168460846,178.9447684288025,178.95567560195923,179.10374307632446,179.10374307632446,179.10374307632446,179.10374307632446,179.10374307632446,179.10374307632446,179.10374307632446,183.97472524642944,2,5.0023229122161865,None,,,,,,,,,,,,,,,,,,8,6,2025-02-13_11h54.22.936,comp,2024.2.5,58.379332374797656,2025-02-13 11h58.46.869410 -0500,
22,22,0,critical,hwd,45.0,4.0,upper,200.0,125.0,125.0,200.0,117.0,117.0,1,8.869876861572266,None,,,,,0,0,0,0,0,22,22,101,183.99210000038147,,,,,,,,,,,,,,,,,,,,,,,,,,,,,,,,,,,,,,,,,,,,,,,,,,,,,,,,,,,,,,,,,,,,,,,,,,,,,,,,,,200.0,125.0,125.0,200.0,117.0,117.0,4.0,4.1,-258,-288,0,-18,254,-265,183.9764256477356,183.97650241851807,183.9793393611908,183.99210000038147,184.1389558315277,184.1389558315277,184.1389558315277,184.1389558315277,184.1389558315277,184.1389558315277,184.1389558315277,192.8754096031189,1,8.869876861572266,None,,,,,,,,,,,,,,,,,,8,6,2025-02-13_11h54.22.936,comp,2024.2.5,58.379332374797656,2025-02-13 11h58.46.869410 -0500,
23,23,0,critical,wdh,60.0,2.1,upper,125.0,200.0,100.0,100.0,200.0,125.0,1,21.923945426940918,None,,,,,0,0,0,0,0,23,23,11,192.89038491249084,,,,,,,,,,,,,,,,,,,,,,,,,,,,,,,,,,,,,,,,,,,,,,,,,,,,,,,,,,,,,,,,,,,,,,,,,,,,,,,,,,125.0,200.0,100.0,100.0,200.0,125.0,2.1,2.11,-246,279,0,253,208,-276,192.8769941329956,192.8770718574524,192.88002514839172,192.89038491249084,193.02846455574036,193.02846455574036,193.02846455574036,193.02846455574036,193.02846455574036,193.02846455574036,193.02846455574036,214.83199954032898,1,21.923945426940918,None,,,,,,,,,,,,,,,,,,8,6,2025-02-13_11h54.22.936,comp,2024.2.5,58.379332374797656,2025-02-13 11h58.46.869410 -0500,
24,24,0,critical,whd,45.0,2.1,upper,125.0,200.0,200.0,125.0,117.0,117.0,1,8.83316946029663,None,,,,,0,0,0,0,0,24,24,37,214.85243391990662,,,,,,,,,,,,,,,,,,,,,,,,,,,,,,,,,,,,,,,,,,,,,,,,,,,,,,,,,,,,,,,,,,,,,,,,,,,,,,,,,,125.0,200.0,200.0,125.0,117.0,117.0,2.1,2.12,-258,-274,0,-279,217,273,214.8336796760559,214.83384227752686,214.83710479736328,214.85243391990662,214.99998331069946,214.99998331069946,214.99998331069946,214.99998331069946,214.99998331069946,214.99998331069946,214.99998331069946,223.70264792442322,1,8.83316946029663,None,,,,,,,,,,,,,,,,,,8,6,2025-02-13_11h54.22.936,comp,2024.2.5,58.379332374797656,2025-02-13 11h58.46.869410 -0500,
25,25,0,critical,whd,60.0,2.1,lower,57.0,133.0,133.0,57.0,55.0,55.0,1,5.343912601470947,None,,,,,0,0,0,0,0,25,25,14,223.72008657455444,,,,,,,,,,,,,,,,,,,,,,,,,,,,,,,,,,,,,,,,,,,,,,,,,,,,,,,,,,,,,,,,,,,,,,,,,,,,,,,,,,57.0,133.0,133.0,57.0,55.0,55.0,2.1,2.12,-191,-275,0,-258,152,277,223.70420956611633,223.70428895950317,223.70736932754517,223.72008657455444,223.86777186393738,223.86777186393738,223.86777186393738,223.86777186393738,223.86777186393738,223.86777186393738,223.86777186393738,229.0688977241516,1,5.343912601470947,None,,,,,,,,,,,,,,,,,,8,6,2025-02-13_11h54.22.936,comp,2024.2.5,58.379332374797656,2025-02-13 11h58.46.869410 -0500,
26,26,0,critical,hwd,60.0,2.1,upper,200.0,125.0,125.0,200.0,100.0,100.0,2,2.6165525913238525,None,,,,,0,0,0,0,0,26,26,43,229.08539581298828,,,,,,,,,,,,,,,,,,,,,,,,,,,,,,,,,,,,,,,,,,,,,,,,,,,,,,,,,,,,,,,,,,,,,,,,,,,,,,,,,,200.0,125.0,125.0,200.0,100.0,100.0,2.1,2.12,-258,-270,0,-257,246,268,229.07042860984802,229.0705087184906,229.07356691360474,229.08539581298828,229.23335886001587,229.23335886001587,229.23335886001587,229.23335886001587,229.23335886001587,229.23335886001587,229.23335886001587,231.70496249198914,2,2.6165525913238525,None,,,,,,,,,,,,,,,,,,8,6,2025-02-13_11h54.22.936,comp,2024.2.5,58.379332374797656,2025-02-13 11h58.46.869410 -0500,
27,27,0,critical,whd,60.0,2.1,upper,125.0,200.0,200.0,125.0,100.0,100.0,1,3.452969789505005,None,,,,,0,0,0,0,0,27,27,39,231.72088360786438,,,,,,,,,,,,,,,,,,,,,,,,,,,,,,,,,,,,,,,,,,,,,,,,,,,,,,,,,,,,,,,,,,,,,,,,,,,,,,,,,,125.0,200.0,200.0,125.0,100.0,100.0,2.1,2.11,-258,271,0,270,208,-283,231.70646286010742,231.70653748512268,231.71005845069885,231.72088360786438,231.87198567390442,231.87198567390442,231.87198567390442,231.87198567390442,231.87198567390442,231.87198567390442,231.87198567390442,235.17892265319824,1,3.452969789505005,None,,,,,,,,,,,,,,,,,,8,6,2025-02-13_11h54.22.936,comp,2024.2.5,58.379332374797656,2025-02-13 11h58.46.869410 -0500,
28,28,0,filler_random,None,None,None,None,None,None,None,None,None,None,2,2.7926297187805176,None,,,,,0,0,0,0,0,28,28,148,235.19702339172363,,,,,,,,,,,,,,,,,,,,,,,,,,,,,,,,,,,,,,,,,,,,,,,,,,,,,,,,,,,,,,,,,,,,,,,,,,,,,,,,,,69.62288698447588,92.98657937680889,166.0428540299011,124.718334865384,79.68757806734249,75.41566002645851,4.0,4.1,-205,-265,0,18,196,-256,235.18048691749573,235.18056416511536,235.18333745002747,235.19702339172363,235.3408579826355,235.3408579826355,235.3408579826355,235.3408579826355,235.3408579826355,235.3408579826355,235.3408579826355,238.00620865821838,2,2.7926297187805176,None,,,,,,,,,,,,,,,,,,8,6,2025-02-13_11h54.22.936,comp,2024.2.5,58.379332374797656,2025-02-13 11h58.46.869410 -0500,
29,29,0,filler_random,None,None,None,None,None,None,None,None,None,None,1,2.839949607849121,None,,,,,0,0,0,0,0,29,29,147,238.02167439460754,,,,,,,,,,,,,,,,,,,,,,,,,,,,,,,,,,,,,,,,,,,,,,,,,,,,,,,,,,,,,,,,,,,,,,,,,,,,,,,,,,173.20469775641703,122.98529206150317,103.05628374415849,154.03873182824861,99.20957845530192,101.8797533387615,1.0,1.1,-715,268,-480,261,-256,272,238.00776267051697,238.0078728199005,238.0112931728363,238.02167439460754,238.17350673675537,238.17350673675537,238.17350673675537,238.17350673675537,238.17350673675537,238.17350673675537,238.17350673675537,240.87630534172058,1,2.839949607849121,None,,,,,,,,,,,,,,,,,,8,6,2025-02-13_11h54.22.936,comp,2024.2.5,58.379332374797656,2025-02-13 11h58.46.869410 -0500,
30,30,0,critical,whd,60.0,3.0,upper,125.0,200.0,200.0,125.0,100.0,100.0,2,3.5933291912078857,None,,,,,0,0,0,0,0,30,30,93,240.89301443099976,,,,,,,,,,,,,,,,,,,,,,,,,,,,,,,,,,,,,,,,,,,,,,,,,,,,,,,,,,,,,,,,,,,,,,,,,,,,,,,,,,125.0,200.0,200.0,125.0,100.0,100.0,3.0,3.2,-258,-252,0,-2,208,262,240.8781921863556,240.87832689285278,240.8818497657776,240.89301443099976,241.04029726982117,241.04029726982117,241.04029726982117,241.04029726982117,241.04029726982117,241.04029726982117,241.04029726982117,244.49150347709656,2,3.5933291912078857,None,,,,,,,,,,,,,,,,,,8,6,2025-02-13_11h54.22.936,comp,2024.2.5,58.379332374797656,2025-02-13 11h58.46.869410 -0500,
31,31,0,critical,dhw,45.0,3.0,upper,117.0,117.0,200.0,125.0,125.0,200.0,3,3.994330644607544,None,,,,,0,0,0,0,0,31,31,51,244.50722670555115,,,,,,,,,,,,,,,,,,,,,,,,,,,,,,,,,,,,,,,,,,,,,,,,,,,,,,,,,,,,,,,,,,,,,,,,,,,,,,,,,,117.0,117.0,200.0,125.0,125.0,200.0,3.0,3.1,-217,272,0,14,258,-278,244.4930715560913,244.49315214157104,244.4964587688446,244.50722670555115,244.65919399261475,244.65919399261475,244.65919399261475,244.65919399261475,244.65919399261475,244.65919399261475,244.65919399261475,248.50822615623474,3,3.994330644607544,None,,,,,,,,,,,,,,,,,,8,6,2025-02-13_11h54.22.936,comp,2024.2.5,58.379332374797656,2025-02-13 11h58.46.869410 -0500,
32,32,0,filler_random,None,None,None,None,None,None,None,None,None,None,2,2.40175199508667,None,,,,,0,0,0,0,0,32,32,158,248.52416276931763,,,,,,,,,,,,,,,,,,,,,,,,,,,,,,,,,,,,,,,,,,,,,,,,,,,,,,,,,,,,,,,,,,,,,,,,,,,,,,,,,,120.52370077179279,57.48275618601073,161.53922423010408,186.81214845849135,164.93278149370957,105.93007669274853,1.0,1.1,-698,260,-480,275,-238,253,248.50885677337646,248.50888419151306,248.50993037223816,248.52416276931763,248.67669701576233,248.67669701576233,248.67669701576233,248.67669701576233,248.67669701576233,248.67669701576233,248.67669701576233,250.94399118423462,2,2.40175199508667,None,,,,,,,,,,,,,,,,,,8,6,2025-02-13_11h54.22.936,comp,2024.2.5,58.379332374797656,2025-02-13 11h58.46.869410 -0500,
33,33,0,critical,dwh,60.0,2.1,lower,55.0,55.0,57.0,133.0,133.0,57.0,2,4.014910697937012,None,,,,,0,0,0,0,0,33,33,30,250.95918250083923,,,,,,,,,,,,,,,,,,,,,,,,,,,,,,,,,,,,,,,,,,,,,,,,,,,,,,,,,,,,,,,,,,,,,,,,,,,,,,,,,,55.0,55.0,57.0,133.0,133.0,57.0,2.1,2.12,-190,-278,0,-284,191,254,250.94551610946655,250.94559264183044,250.94898962974548,250.95918250083923,251.10945320129395,251.10945320129395,251.10945320129395,251.10945320129395,251.10945320129395,251.10945320129395,251.10945320129395,254.98076152801514,2,4.014910697937012,None,,,,,,,,,,,,,,,,,,8,6,2025-02-13_11h54.22.936,comp,2024.2.5,58.379332374797656,2025-02-13 11h58.46.869410 -0500,
34,34,0,critical,dhw,45.0,4.0,lower,65.0,65.0,133.0,57.0,57.0,133.0,3,3.689072847366333,None,,,,,0,0,0,0,0,34,34,52,254.99649333953857,,,,,,,,,,,,,,,,,,,,,,,,,,,,,,,,,,,,,,,,,,,,,,,,,,,,,,,,,,,,,,,,,,,,,,,,,,,,,,,,,,65.0,65.0,133.0,57.0,57.0,133.0,4.0,4.1,-157,-288,0,-12,191,-287,254.98290634155273,254.98298716545105,254.98583841323853,254.99649333953857,255.14467453956604,255.14467453956604,255.14467453956604,255.14467453956604,255.14467453956604,255.14467453956604,255.14467453956604,258.6948404312134,3,3.689072847366333,None,,,,,,,,,,,,,,,,,,8,6,2025-02-13_11h54.22.936,comp,2024.2.5,58.379332374797656,2025-02-13 11h58.46.869410 -0500,
35,35,0,critical,hdw,45.0,2.1,upper,200.0,125.0,117.0,117.0,125.0,200.0,3,3.8469417095184326,None,,,,,0,0,0,0,0,35,35,45,258.71082043647766,,,,,,,,,,,,,,,,,,,,,,,,,,,,,,,,,,,,,,,,,,,,,,,,,,,,,,,,,,,,,,,,,,,,,,,,,,,,,,,,,,200.0,125.0,117.0,117.0,125.0,200.0,2.1,2.11,-217,272,0,280,254,-284,258.6964020729065,258.6964817047119,258.69948291778564,258.71082043647766,258.8668203353882,258.8668203353882,258.8668203353882,258.8668203353882,258.8668203353882,258.8668203353882,258.8668203353882,262.5632131099701,3,3.8469417095184326,None,,,,,,,,,,,,,,,,,,8,6,2025-02-13_11h54.22.936,comp,2024.2.5,58.379332374797656,2025-02-13 11h58.46.869410 -0500,
36,36,0,critical,dwh,45.0,1.0,lower,65.0,65.0,57.0,133.0,133.0,57.0,3,4.869427919387817,None,,,,,0,0,0,0,0,36,36,60,262.5838711261749,,,,,,,,,,,,,,,,,,,,,,,,,,,,,,,,,,,,,,,,,,,,,,,,,,,,,,,,,,,,,,,,,,,,,,,,,,,,,,,,,,65.0,65.0,57.0,133.0,133.0,57.0,1.0,1.2,-195,-9,0,15,191,14,262.56473684310913,262.56484937667847,262.5681097507477,262.5838711261749,262.73106694221497,262.73106694221497,262.73106694221497,262.73106694221497,262.73106694221497,262.73106694221497,262.73106694221497,267.46559596061707,3,4.869427919387817,None,,,,,,,,,,,,,,,,,,8,6,2025-02-13_11h54.22.936,comp,2024.2.5,58.379332374797656,2025-02-13 11h58.46.869410 -0500,
37,37,0,filler_square,None,None,None,None,None,None,None,None,None,None,3,15.53077220916748,None,,,,,0,0,0,0,0,37,37,208,267.4828956127167,,,,,,,,,,,,,,,,,,,,,,,,,,,,,,,,,,,,,,,,,,,,,,,,,,,,,,,,,,,,,,,,,,,,,,,,,,,,,,,,,,73.56177828320367,64.95417773118685,95.45258974823082,95.45258974823082,92.92373587185776,67.32424725831183,1.0,1.1,-656,264,-480,267,-303,281,267.46763372421265,267.4677128791809,267.4712014198303,267.4828956127167,267.6285388469696,267.6285388469696,267.6285388469696,267.6285388469696,267.6285388469696,267.6285388469696,267.6285388469696,283.0198438167572,3,15.53077220916748,None,,,,,,,,,,,,,,,,,,8,6,2025-02-13_11h54.22.936,comp,2024.2.5,58.379332374797656,2025-02-13 11h58.46.869410 -0500,
38,38,0,critical,hwd,60.0,1.0,lower,133.0,57.0,57.0,133.0,55.0,55.0,1,7.843988656997681,None,,,,,0,0,0,0,0,38,38,102,283.03461718559265,,,,,,,,,,,,,,,,,,,,,,,,,,,,,,,,,,,,,,,,,,,,,,,,,,,,,,,,,,,,,,,,,,,,,,,,,,,,,,,,,,133.0,57.0,57.0,133.0,55.0,55.0,1.0,1.1,-671,259,-480,267,-290,255,283.0214445590973,283.02153491973877,283.0249722003937,283.03461718559265,283.1879642009735,283.1879642009735,283.1879642009735,283.1879642009735,283.1879642009735,283.1879642009735,283.1879642009735,290.8891177177429,1,7.843988656997681,None,,,,,,,,,,,,,,,,,,8,6,2025-02-13_11h54.22.936,comp,2024.2.5,58.379332374797656,2025-02-13 11h58.46.869410 -0500,
39,39,0,critical,hdw,60.0,3.0,upper,200.0,125.0,100.0,100.0,125.0,200.0,3,7.428290605545044,None,,,,,0,0,0,0,0,39,39,117,290.90547919273376,,,,,,,,,,,,,,,,,,,,,,,,,,,,,,,,,,,,,,,,,,,,,,,,,,,,,,,,,,,,,,,,,,,,,,,,,,,,,,,,,,200.0,125.0,100.0,100.0,125.0,200.0,3.0,3.1,-208,273,0,5,246,-262,290.8906674385071,290.89074659347534,290.8947432041168,290.90547919273376,291.05688643455505,291.05688643455505,291.05688643455505,291.05688643455505,291.05688643455505,291.05688643455505,291.05688643455505,298.3437600135803,3,7.428290605545044,None,,,,,,,,,,,,,,,,,,8,6,2025-02-13_11h54.22.936,comp,2024.2.5,58.379332374797656,2025-02-13 11h58.46.869410 -0500,
40,40,0,critical,wdh,60.0,2.1,upper,125.0,200.0,100.0,100.0,200.0,125.0,3,2.1968696117401123,None,,,,,0,0,0,0,0,40,40,35,298.3601076602936,,,,,,,,,,,,,,,,,,,,,,,,,,,,,,,,,,,,,,,,,,,,,,,,,,,,,,,,,,,,,,,,,,,,,,,,,,,,,,,,,,125.0,200.0,100.0,100.0,200.0,125.0,2.1,2.11,-246,270,0,263,208,-268,298.3455493450165,298.3456265926361,298.34944772720337,298.3601076602936,298.50877571105957,298.50877571105957,298.50877571105957,298.50877571105957,298.50877571105957,298.50877571105957,298.50877571105957,300.5590479373932,3,2.1968696117401123,None,,,,,,,,,,,,,,,,,,8,6,2025-02-13_11h54.22.936,comp,2024.2.5,58.379332374797656,2025-02-13 11h58.46.869410 -0500,
41,41,0,critical,hdw,45.0,3.0,lower,133.0,57.0,65.0,65.0,57.0,133.0,1,3.1015465259552,None,,,,,0,0,0,0,0,41,41,110,300.57547426223755,,,,,,,,,,,,,,,,,,,,,,,,,,,,,,,,,,,,,,,,,,,,,,,,,,,,,,,,,,,,,,,,,,,,,,,,,,,,,,,,,,133.0,57.0,65.0,65.0,57.0,133.0,3.0,3.2,-157,-257,0,15,195,256,300.5606074333191,300.56068563461304,300.5647087097168,300.57547426223755,300.72909450531006,300.72909450531006,300.72909450531006,300.72909450531006,300.72909450531006,300.72909450531006,300.72909450531006,303.69238114356995,1,3.1015465259552,None,,,,,,,,,,,,,,,,,,8,6,2025-02-13_11h54.22.936,comp,2024.2.5,58.379332374797656,2025-02-13 11h58.46.869410 -0500,
42,42,0,critical,dwh,60.0,3.0,lower,55.0,55.0,57.0,133.0,133.0,57.0,3,4.904764175415039,None,,,,,0,0,0,0,0,42,42,68,303.7081518173218,,,,,,,,,,,,,,,,,,,,,,,,,,,,,,,,,,,,,,,,,,,,,,,,,,,,,,,,,,,,,,,,,,,,,,,,,,,,,,,,,,55.0,55.0,57.0,133.0,133.0,57.0,3.0,3.2,-190,-279,0,-2,191,290,303.69398188591003,303.6941034793854,303.6975646018982,303.7081518173218,303.8587317466736,303.8587317466736,303.8587317466736,303.8587317466736,303.8587317466736,303.8587317466736,303.8587317466736,308.6278860569,3,4.904764175415039,None,,,,,,,,,,,,,,,,,,8,6,2025-02-13_11h54.22.936,comp,2024.2.5,58.379332374797656,2025-02-13 11h58.46.869410 -0500,
43,43,0,filler_square,None,None,None,None,None,None,None,None,None,None,3,1.8826444149017334,None,,,,,0,0,0,0,0,43,43,197,308.64260935783386,,,,,,,,,,,,,,,,,,,,,,,,,,,,,,,,,,,,,,,,,,,,,,,,,,,,,,,,,,,,,,,,,,,,,,,,,,,,,,,,,,80.47457006742314,124.27656237453542,121.80285013918703,71.77580487619352,167.13621301022943,167.13621301022943,2.1,2.12,-194,-279,0,-267,215,286,308.6293742656708,308.6294136047363,308.63168811798096,308.64260935783386,308.7972388267517,308.7972388267517,308.7972388267517,308.7972388267517,308.7972388267517,308.7972388267517,308.7972388267517,310.5272858142853,3,1.8826444149017334,None,,,,,,,,,,,,,,,,,,8,6,2025-02-13_11h54.22.936,comp,2024.2.5,58.379332374797656,2025-02-13 11h58.46.869410 -0500,
44,44,0,filler_random,None,None,None,None,None,None,None,None,None,None,2,3.813244104385376,None,,,,,0,0,0,0,0,44,44,134,310.5444495677948,,,,,,,,,,,,,,,,,,,,,,,,,,,,,,,,,,,,,,,,,,,,,,,,,,,,,,,,,,,,,,,,,,,,,,,,,,,,,,,,,,140.8264924256987,114.59571195735164,71.93744530497143,187.84895211322868,92.59785972758141,112.93714104155367,3.0,3.1,-247,276,0,-10,246,-283,310.5291905403137,310.52927446365356,310.53250217437744,310.5444495677948,310.6917507648468,310.6917507648468,310.6917507648468,310.6917507648468,310.6917507648468,310.6917507648468,310.6917507648468,314.3639278411865,2,3.813244104385376,None,,,,,,,,,,,,,,,,,,8,6,2025-02-13_11h54.22.936,comp,2024.2.5,58.379332374797656,2025-02-13 11h58.46.869410 -0500,
45,45,0,critical,whd,45.0,1.0,lower,57.0,133.0,133.0,57.0,65.0,65.0,1,20.953583478927612,None,,,,,0,0,0,0,0,45,45,84,314.3793580532074,,,,,,,,,,,,,,,,,,,,,,,,,,,,,,,,,,,,,,,,,,,,,,,,,,,,,,,,,,,,,,,,,,,,,,,,,,,,,,,,,,57.0,133.0,133.0,57.0,65.0,65.0,1.0,1.3,289,-250,480,-262,637,-257,314.36539363861084,314.3654704093933,314.36867356300354,314.3793580532074,314.52953720092773,314.52953720092773,314.52953720092773,314.52953720092773,314.52953720092773,314.52953720092773,314.52953720092773,335.3349528312683,1,20.953583478927612,None,,,,,,,,,,,,,,,,,,8,6,2025-02-13_11h54.22.936,comp,2024.2.5,58.379332374797656,2025-02-13 11h58.46.869410 -0500,
46,46,0,critical,whd,60.0,3.0,lower,57.0,133.0,133.0,57.0,55.0,55.0,1,6.1532416343688965,None,,,,,0,0,0,0,0,46,46,92,335.355384349823,,,,,,,,,,,,,,,,,,,,,,,,,,,,,,,,,,,,,,,,,,,,,,,,,,,,,,,,,,,,,,,,,,,,,,,,,,,,,,,,,,57.0,133.0,133.0,57.0,55.0,55.0,3.0,3.1,-191,289,0,16,152,-267,335.3365526199341,335.3366596698761,335.3402066230774,335.355384349823,335.50230145454407,335.50230145454407,335.50230145454407,335.50230145454407,335.50230145454407,335.50230145454407,335.50230145454407,341.5219600200653,1,6.1532416343688965,None,,,,,,,,,,,,,,,,,,8,6,2025-02-13_11h54.22.936,comp,2024.2.5,58.379332374797656,2025-02-13 11h58.46.869410 -0500,
47,47,0,filler_square,None,None,None,None,None,None,None,None,None,None,3,3.059030294418335,None,,,,,0,0,0,0,0,47,47,174,341.5383141040802,,,,,,,,,,,,,,,,,,,,,,,,,,,,,,,,,,,,,,,,,,,,,,,,,,,,,,,,,,,,,,,,,,,,,,,,,,,,,,,,,,64.43299927158463,78.63944016528775,82.96762967903678,68.94743061650686,103.4926111878519,103.4926111878519,1.0,1.1,-650,258,-480,254,-298,253,341.523912191391,341.5240406990051,341.5280361175537,341.5383141040802,341.6908884048462,341.6908884048462,341.6908884048462,341.6908884048462,341.6908884048462,341.6908884048462,341.6908884048462,344.60397720336914,3,3.059030294418335,None,,,,,,,,,,,,,,,,,,8,6,2025-02-13_11h54.22.936,comp,2024.2.5,58.379332374797656,2025-02-13 11h58.46.869410 -0500,
48,48,0,critical,dwh,60.0,2.1,upper,100.0,100.0,125.0,200.0,200.0,125.0,2,5.012356519699097,None,,,,,0,0,0,0,0,48,48,31,344.6241807937622,,,,,,,,,,,,,,,,,,,,,,,,,,,,,,,,,,,,,,,,,,,,,,,,,,,,,,,,,,,,,,,,,,,,,,,,,,,,,,,,,,100.0,100.0,125.0,200.0,200.0,125.0,2.1,2.12,-246,-268,0,-286,258,289,344.605516910553,344.60559487342834,344.6085374355316,344.6241807937622,344.7718095779419,344.7718095779419,344.7718095779419,344.7718095779419,344.7718095779419,344.7718095779419,344.7718095779419,349.655882358551,2,5.012356519699097,None,,,,,,,,,,,,,,,,,,8,6,2025-02-13_11h54.22.936,comp,2024.2.5,58.379332374797656,2025-02-13 11h58.46.869410 -0500,
49,49,0,catch,None,None,None,None,None,None,None,None,None,None,3,2.461775541305542,None,,,,,0,0,0,0,0,49,49,123,349.671511888504,,,,,,,,,,,,,,,,,,,,,,,,,,,,,,,,,,,,,,,,,,,,,,,,,,,,,,,,,,,,,,,,,,,,,,,,,,,,,,,,,,104,86,111,79,139,186,3.0,3.2,-178,-259,0,-9,228,252,349.65777134895325,349.6578702926636,349.66095757484436,349.671511888504,349.82361912727356,349.82361912727356,349.82361912727356,349.82361912727356,349.82361912727356,349.82361912727356,349.82361912727356,352.1408565044403,3,2.461775541305542,None,,,,,,,,,,,,,,,,,,8,6,2025-02-13_11h54.22.936,comp,2024.2.5,58.379332374797656,2025-02-13 11h58.46.869410 -0500,
50,50,0,filler_square,None,None,None,None,None,None,None,None,None,None,1,2.176478147506714,None,,,,,0,0,0,0,0,50,50,200,352.1567544937134,,,,,,,,,,,,,,,,,,,,,,,,,,,,,,,,,,,,,,,,,,,,,,,,,,,,,,,,,,,,,,,,,,,,,,,,,,,,,,,,,,179.19801517088382,179.19801517088382,80.23237931491133,84.03712187422178,148.53415965267305,80.78019955739931,2.1,2.11,-228,278,0,270,178,-286,352.14256715774536,352.14264392852783,352.1461000442505,352.1567544937134,352.3080768585205,352.3080768585205,352.3080768585205,352.3080768585205,352.3080768585205,352.3080768585205,352.3080768585205,354.3415877819061,1,2.176478147506714,None,,,,,,,,,,,,,,,,,,8,6,2025-02-13_11h54.22.936,comp,2024.2.5,58.379332374797656,2025-02-13 11h58.46.869410 -0500,
51,51,0,filler_square,None,None,None,None,None,None,None,None,None,None,2,2.838593006134033,None,,,,,0,0,0,0,0,51,51,189,354.35807847976685,,,,,,,,,,,,,,,,,,,,,,,,,,,,,,,,,,,,,,,,,,,,,,,,,,,,,,,,,,,,,,,,,,,,,,,,,,,,,,,,,,105.31045049155051,115.85048859494529,121.33945375612414,121.33945375612414,71.04307593324552,70.9279735819515,2.2,2.21,-215,-250,0,258,192,254,354.3436415195465,354.34372067451477,354.34715008735657,354.35807847976685,354.5070254802704,354.5070254802704,354.5070254802704,354.5070254802704,354.5070254802704,354.5070254802704,354.5070254802704,357.2081575393677,2,2.838593006134033,None,,,,,,,,,,,,,,,,,,8,6,2025-02-13_11h54.22.936,comp,2024.2.5,58.379332374797656,2025-02-13 11h58.46.869410 -0500,
52,52,0,critical,dwh,45.0,3.0,upper,117.0,117.0,125.0,200.0,200.0,125.0,2,10.993221521377563,None,,,,,0,0,0,0,0,52,52,63,357.2278952598572,,,,,,,,,,,,,,,,,,,,,,,,,,,,,,,,,,,,,,,,,,,,,,,,,,,,,,,,,,,,,,,,,,,,,,,,,,,,,,,,,,117.0,117.0,125.0,200.0,200.0,125.0,3.0,3.1,-254,252,0,10,258,-286,357.2096862792969,357.20976519584656,357.2129933834076,357.2278952598572,357.375732421875,357.375732421875,357.375732421875,357.375732421875,357.375732421875,357.375732421875,357.375732421875,368.2258622646332,2,10.993221521377563,None,,,,,,,,,,,,,,,,,,8,6,2025-02-13_11h54.22.936,comp,2024.2.5,58.379332374797656,2025-02-13 11h58.46.869410 -0500,
53,53,0,critical,dhw,60.0,4.0,upper,100.0,100.0,200.0,125.0,125.0,200.0,3,3.337883234024048,None,,,,,0,0,0,0,0,53,53,59,368.2426161766052,,,,,,,,,,,,,,,,,,,,,,,,,,,,,,,,,,,,,,,,,,,,,,,,,,,,,,,,,,,,,,,,,,,,,,,,,,,,,,,,,,100.0,100.0,200.0,125.0,125.0,200.0,4.0,4.2,-208,11,0,-272,258,5,368.22735929489136,368.2274339199066,368.2302677631378,368.2426161766052,368.3976340293884,368.3976340293884,368.3976340293884,368.3976340293884,368.3976340293884,368.3976340293884,368.3976340293884,371.5994038581848,3,3.337883234024048,None,,,,,,,,,,,,,,,,,,8,6,2025-02-13_11h54.22.936,comp,2024.2.5,58.379332374797656,2025-02-13 11h58.46.869410 -0500,
54,54,0,filler_random,None,None,None,None,None,None,None,None,None,None,2,2.204191207885742,None,,,,,0,0,0,0,0,54,54,166,371.61629486083984,,,,,,,,,,,,,,,,,,,,,,,,,,,,,,,,,,,,,,,,,,,,,,,,,,,,,,,,,,,,,,,,,,,,,,,,,,,,,,,,,,136.09774320668805,69.17406788025568,116.49145749344322,197.41661636587034,171.90142507147218,74.42073690401972,2.1,2.11,-229,257,0,253,232,-271,371.60134768486023,371.60142731666565,371.6052327156067,371.61629486083984,371.76346254348755,371.76346254348755,371.76346254348755,371.76346254348755,371.76346254348755,371.76346254348755,371.76346254348755,373.83021688461304,2,2.204191207885742,None,,,,,,,,,,,,,,,,,,8,6,2025-02-13_11h54.22.936,comp,2024.2.5,58.379332374797656,2025-02-13 11h58.46.869410 -0500,
55,55,0,critical,hwd,45.0,1.0,lower,133.0,57.0,57.0,133.0,65.0,65.0,2,2.8622312545776367,None,,,,,0,0,0,0,0,55,55,96,373.8469123840332,,,,,,,,,,,,,,,,,,,,,,,,,,,,,,,,,,,,,,,,,,,,,,,,,,,,,,,,,,,,,,,,,,,,,,,,,,,,,,,,,,133.0,57.0,57.0,133.0,65.0,65.0,1.0,1.3,289,-261,480,-264,675,-271,373.83176827430725,373.8318817615509,373.83523440361023,373.8469123840332,373.99629068374634,373.99629068374634,373.99629068374634,373.99629068374634,373.99629068374634,373.99629068374634,373.99629068374634,376.71517634391785,2,2.8622312545776367,None,,,,,,,,,,,,,,,,,,8,6,2025-02-13_11h54.22.936,comp,2024.2.5,58.379332374797656,2025-02-13 11h58.46.869410 -0500,
56,56,0,critical,dhw,45.0,1.0,lower,65.0,65.0,133.0,57.0,57.0,133.0,3,21.113996505737305,None,,,,,0,0,0,0,0,56,56,48,376.73082423210144,,,,,,,,,,,,,,,,,,,,,,,,,,,,,,,,,,,,,,,,,,,,,,,,,,,,,,,,,,,,,,,,,,,,,,,,,,,,,,,,,,65.0,65.0,133.0,57.0,57.0,133.0,1.0,1.2,-157,15,0,-12,191,15,376.7166829109192,376.71676301956177,376.7200810909271,376.73082423210144,376.88044142723083,376.88044142723083,376.88044142723083,376.88044142723083,376.88044142723083,376.88044142723083,376.88044142723083,397.8532803058624,3,21.113996505737305,None,,,,,,,,,,,,,,,,,,8,6,2025-02-13_11h54.22.936,comp,2024.2.5,58.379332374797656,2025-02-13 11h58.46.869410 -0500,
57,57,0,filler_square,None,None,None,None,None,None,None,None,None,None,2,1.92714524269104,None,,,,,0,0,0,0,0,57,57,201,397.86978125572205,,,,,,,,,,,,,,,,,,,,,,,,,,,,,,,,,,,,,,,,,,,,,,,,,,,,,,,,,,,,,,,,,,,,,,,,,,,,,,,,,,96.0446239562762,71.79837255853279,109.30029058689496,109.30029058689496,79.54035427112717,91.34846041863437,4.0,4.2,-187,-8,0,-281,196,10,397.8549494743347,397.85502529144287,397.85814023017883,397.86978125572205,398.025022983551,398.025022983551,398.025022983551,398.025022983551,398.025022983551,398.025022983551,398.025022983551,399.80548310279846,2,1.92714524269104,None,,,,,,,,,,,,,,,,,,8,6,2025-02-13_11h54.22.936,comp,2024.2.5,58.379332374797656,2025-02-13 11h58.46.869410 -0500,
58,58,0,filler_square,None,None,None,None,None,None,None,None,None,None,2,3.0065741539001465,None,,,,,0,0,0,0,0,58,58,190,399.8214490413666,,,,,,,,,,,,,,,,,,,,,,,,,,,,,,,,,,,,,,,,,,,,,,,,,,,,,,,,,,,,,,,,,,,,,,,,,,,,,,,,,,79.26678542784714,85.44573534113388,110.94378659232046,110.94378659232046,99.9836413588069,95.62630603534342,3.0,3.2,-194,-275,0,-15,199,252,399.80734276771545,399.8074231147766,399.81086468696594,399.8214490413666,399.97060322761536,399.97060322761536,399.97060322761536,399.97060322761536,399.97060322761536,399.97060322761536,399.97060322761536,402.8418490886688,2,3.0065741539001465,None,,,,,,,,,,,,,,,,,,8,6,2025-02-13_11h54.22.936,comp,2024.2.5,58.379332374797656,2025-02-13 11h58.46.869410 -0500,
59,59,0,critical,wdh,60.0,1.0,lower,57.0,133.0,55.0,55.0,133.0,57.0,1,2.9855690002441406,None,,,,,0,0,0,0,0,59,59,78,402.8589017391205,,,,,,,,,,,,,,,,,,,,,,,,,,,,,,,,,,,,,,,,,,,,,,,,,,,,,,,,,,,,,,,,,,,,,,,,,,,,,,,,,,57.0,133.0,55.0,55.0,133.0,57.0,1.0,1.3,290,-260,480,-280,632,-273,402.84373593330383,402.84389209747314,402.8468885421753,402.8589017391205,403.0078661441803,403.0078661441803,403.0078661441803,403.0078661441803,403.0078661441803,403.0078661441803,403.0078661441803,405.8476915359497,1,2.9855690002441406,None,,,,,,,,,,,,,,,,,,8,6,2025-02-13_11h54.22.936,comp,2024.2.5,58.379332374797656,2025-02-13 11h58.46.869410 -0500,
60,60,0,filler_square,None,None,None,None,None,None,None,None,None,None,3,2.660997152328491,None,,,,,0,0,0,0,0,60,60,178,405.86329555511475,,,,,,,,,,,,,,,,,,,,,,,,,,,,,,,,,,,,,,,,,,,,,,,,,,,,,,,,,,,,,,,,,,,,,,,,,,,,,,,,,,63.33308090056689,76.41431684985417,59.07676909739055,64.29024734185526,101.93162339495723,101.93162339495723,3.0,3.2,-166,-275,0,16,179,253,405.84948897361755,405.84957003593445,405.8524429798126,405.86329555511475,406.0073094367981,406.0073094367981,406.0073094367981,406.0073094367981,406.0073094367981,406.0073094367981,406.0073094367981,408.5306487083435,3,2.660997152328491,None,,,,,,,,,,,,,,,,,,8,6,2025-02-13_11h54.22.936,comp,2024.2.5,58.379332374797656,2025-02-13 11h58.46.869410 -0500,
61,61,0,filler_square,None,None,None,None,None,None,None,None,None,None,1,3.070486545562744,None,,,,,0,0,0,0,0,61,61,188,408.55042815208435,,,,,,,,,,,,,,,,,,,,,,,,,,,,,,,,,,,,,,,,,,,,,,,,,,,,,,,,,,,,,,,,,,,,,,,,,,,,,,,,,,60.7337756025428,60.7337756025428,57.84956987274143,57.10875167642815,58.60696506766327,57.281557817636916,2.1,2.11,-155,263,0,286,153,-283,408.53262543678284,408.53273367881775,408.5359342098236,408.55042815208435,408.69125032424927,408.69125032424927,408.69125032424927,408.69125032424927,408.69125032424927,408.69125032424927,408.69125032424927,411.6277675628662,1,3.070486545562744,None,,,,,,,,,,,,,,,,,,8,6,2025-02-13_11h54.22.936,comp,2024.2.5,58.379332374797656,2025-02-13 11h58.46.869410 -0500,
62,62,0,critical,hwd,45.0,2.1,upper,200.0,125.0,125.0,200.0,117.0,117.0,2,3.168006181716919,None,,,,,0,0,0,0,0,62,62,17,411.64389753341675,,,,,,,,,,,,,,,,,,,,,,,,,,,,,,,,,,,,,,,,,,,,,,,,,,,,,,,,,,,,,,,,,,,,,,,,,,,,,,,,,,200.0,125.0,125.0,200.0,117.0,117.0,2.1,2.12,-258,-289,0,-278,254,253,411.62945914268494,411.6295943260193,411.6330816745758,411.64389753341675,411.7950050830841,411.7950050830841,411.7950050830841,411.7950050830841,411.7950050830841,411.7950050830841,411.7950050830841,414.8263957500458,2,3.168006181716919,None,,,,,,,,,,,,,,,,,,8,6,2025-02-13_11h54.22.936,comp,2024.2.5,58.379332374797656,2025-02-13 11h58.46.869410 -0500,
63,63,0,filler_random,None,None,None,None,None,None,None,None,None,None,2,3.6650848388671875,None,,,,,0,0,0,0,0,63,63,168,414.84338665008545,,,,,,,,,,,,,,,,,,,,,,,,,,,,,,,,,,,,,,,,,,,,,,,,,,,,,,,,,,,,,,,,,,,,,,,,,,,,,,,,,,73.46311783809826,71.40365681636806,185.17345070740495,145.60786419298904,188.6804394659527,120.30005729553017,3.0,3.2,-205,-252,0,6,229,250,414.8280873298645,414.8281660079956,414.8312566280365,414.84338665008545,415.00084352493286,415.00084352493286,415.00084352493286,415.00084352493286,415.00084352493286,415.00084352493286,415.00084352493286,418.51469135284424,2,3.6650848388671875,None,,,,,,,,,,,,,,,,,,8,6,2025-02-13_11h54.22.936,comp,2024.2.5,58.379332374797656,2025-02-13 11h58.46.869410 -0500,
64,64,0,critical,wdh,45.0,2.1,upper,125.0,200.0,117.0,117.0,200.0,125.0,1,3.639511823654175,None,,,,,0,0,0,0,0,64,64,33,418.53300189971924,,,,,,,,,,,,,,,,,,,,,,,,,,,,,,,,,,,,,,,,,,,,,,,,,,,,,,,,,,,,,,,,,,,,,,,,,,,,,,,,,,125.0,200.0,117.0,117.0,200.0,125.0,2.1,2.12,-254,-273,0,-281,217,286,418.5162720680237,418.51635003089905,418.5191767215729,418.53300189971924,418.67733931541443,418.67733931541443,418.67733931541443,418.67733931541443,418.67733931541443,418.67733931541443,418.67733931541443,422.17739748954773,1,3.639511823654175,None,,,,,,,,,,,,,,,,,,8,6,2025-02-13_11h54.22.936,comp,2024.2.5,58.379332374797656,2025-02-13 11h58.46.869410 -0500,
65,65,0,critical,dwh,45.0,2.1,lower,65.0,65.0,57.0,133.0,133.0,57.0,2,3.5591201782226562,None,,,,,0,0,0,0,0,65,65,28,422.1967782974243,,,,,,,,,,,,,,,,,,,,,,,,,,,,,,,,,,,,,,,,,,,,,,,,,,,,,,,,,,,,,,,,,,,,,,,,,,,,,,,,,,65.0,65.0,57.0,133.0,133.0,57.0,2.1,2.12,-195,-287,0,-259,191,268,422.1788663864136,422.1789433956146,422.18183994293213,422.1967782974243,422.3488914966583,422.3488914966583,422.3488914966583,422.3488914966583,422.3488914966583,422.3488914966583,422.3488914966583,425.76229763031006,2,3.5591201782226562,None,,,,,,,,,,,,,,,,,,8,6,2025-02-13_11h54.22.936,comp,2024.2.5,58.379332374797656,2025-02-13 11h58.46.869410 -0500,
66,66,0,critical,whd,45.0,4.0,lower,57.0,133.0,133.0,57.0,65.0,65.0,1,8.69602656364441,None,,,,,0,0,0,0,0,66,66,88,425.78029227256775,,,,,,,,,,,,,,,,,,,,,,,,,,,,,,,,,,,,,,,,,,,,,,,,,,,,,,,,,,,,,,,,,,,,,,,,,,,,,,,,,,57.0,133.0,133.0,57.0,65.0,65.0,4.0,4.1,-191,-268,0,12,157,-268,425.7638828754425,425.7639603614807,425.76721715927124,425.78029227256775,425.92743253707886,425.92743253707886,425.92743253707886,425.92743253707886,425.92743253707886,425.92743253707886,425.92743253707886,434.4829182624817,1,8.69602656364441,None,,,,,,,,,,,,,,,,,,8,6,2025-02-13_11h54.22.936,comp,2024.2.5,58.379332374797656,2025-02-13 11h58.46.869410 -0500,
67,67,0,critical,hwd,60.0,4.0,upper,200.0,125.0,125.0,200.0,100.0,100.0,2,6.556421518325806,None,,,,,0,0,0,0,0,67,67,107,434.5032196044922,,,,,,,,,,,,,,,,,,,,,,,,,,,,,,,,,,,,,,,,,,,,,,,,,,,,,,,,,,,,,,,,,,,,,,,,,,,,,,,,,,200.0,125.0,125.0,200.0,100.0,100.0,4.0,4.1,-258,-261,0,-16,246,-268,434.4844558238983,434.4845359325409,434.4877278804779,434.5032196044922,434.6449303627014,434.6449303627014,434.6449303627014,434.6449303627014,434.6449303627014,434.6449303627014,434.6449303627014,441.0717375278473,2,6.556421518325806,None,,,,,,,,,,,,,,,,,,8,6,2025-02-13_11h54.22.936,comp,2024.2.5,58.379332374797656,2025-02-13 11h58.46.869410 -0500,
68,68,0,critical,hdw,60.0,3.0,lower,133.0,57.0,55.0,55.0,57.0,133.0,3,2.8676180839538574,None,,,,,0,0,0,0,0,68,68,116,441.0881562232971,,,,,,,,,,,,,,,,,,,,,,,,,,,,,,,,,,,,,,,,,,,,,,,,,,,,,,,,,,,,,,,,,,,,,,,,,,,,,,,,,,133.0,57.0,55.0,55.0,57.0,133.0,3.0,3.1,-152,284,0,0,190,-283,441.0734386444092,441.07351565361023,441.07697916030884,441.0881562232971,441.2334773540497,441.2334773540497,441.2334773540497,441.2334773540497,441.2334773540497,441.2334773540497,441.2334773540497,443.97004294395447,3,2.8676180839538574,None,,,,,,,,,,,,,,,,,,8,6,2025-02-13_11h54.22.936,comp,2024.2.5,58.379332374797656,2025-02-13 11h58.46.869410 -0500,
69,69,0,catch,None,None,None,None,None,None,None,None,None,None,3,2.178689956665039,None,,,,,0,0,0,0,0,69,69,126,443.9856905937195,,,,,,,,,,,,,,,,,,,,,,,,,,,,,,,,,,,,,,,,,,,,,,,,,,,,,,,,,,,,,,,,,,,,,,,,,,,,,,,,,,132,58,108,82,181,144,4.0,4.2,-166,3,0,-252,209,-4,443.972101688385,443.9721851348877,443.9754419326782,443.9856905937195,444.1360285282135,444.1360285282135,444.1360285282135,444.1360285282135,444.1360285282135,444.1360285282135,444.1360285282135,446.1665720939636,3,2.178689956665039,None,,,,,,,,,,,,,,,,,,8,6,2025-02-13_11h54.22.936,comp,2024.2.5,58.379332374797656,2025-02-13 11h58.46.869410 -0500,
70,70,0,filler_square,None,None,None,None,None,None,None,None,None,None,3,2.109231472015381,None,,,,,0,0,0,0,0,70,70,172,446.18301033973694,,,,,,,,,,,,,,,,,,,,,,,,,,,,,,,,,,,,,,,,,,,,,,,,,,,,,,,,,,,,,,,,,,,,,,,,,,,,,,,,,,142.40342028071586,104.17489783593655,152.7349744794924,58.3220467468985,162.19025005096262,162.19025005096262,2.2,2.22,-177,283,0,-265,206,-282,446.1683466434479,446.16842222213745,446.1712715625763,446.18301033973694,446.31941843032837,446.31941843032837,446.31941843032837,446.31941843032837,446.31941843032837,446.31941843032837,446.31941843032837,448.309011220932,3,2.109231472015381,None,,,,,,,,,,,,,,,,,,8,6,2025-02-13_11h54.22.936,comp,2024.2.5,58.379332374797656,2025-02-13 11h58.46.869410 -0500,
71,71,0,catch,None,None,None,None,None,None,None,None,None,None,3,1.6853392124176025,None,,,,,0,0,0,0,0,71,71,127,448.32646107673645,,,,,,,,,,,,,,,,,,,,,,,,,,,,,,,,,,,,,,,,,,,,,,,,,,,,,,,,,,,,,,,,,,,,,,,,,,,,,,,,,,86,104,125,65,179,146,4.0,4.2,-180,8,0,-265,202,-2,448.3109154701233,448.31099367141724,448.31389236450195,448.32646107673645,448.4700891971588,448.4700891971588,448.4700891971588,448.4700891971588,448.4700891971588,448.4700891971588,448.4700891971588,450.0204083919525,3,1.6853392124176025,None,,,,,,,,,,,,,,,,,,8,6,2025-02-13_11h54.22.936,comp,2024.2.5,58.379332374797656,2025-02-13 11h58.46.869410 -0500,
72,72,0,filler_square,None,None,None,None,None,None,None,None,None,None,1,3.9825377464294434,None,,,,,0,0,0,0,0,72,72,195,450.037038564682,,,,,,,,,,,,,,,,,,,,,,,,,,,,,,,,,,,,,,,,,,,,,,,,,,,,,,,,,,,,,,,,,,,,,,,,,,,,,,,,,,114.40414071377124,102.60876175513849,109.17897622057389,64.5469630483451,116.90613184457462,116.90613184457462,2.1,2.12,-180,-287,0,-289,187,273,450.0225214958191,450.02260184288025,450.02627396583557,450.037038564682,450.1887171268463,450.1887171268463,450.1887171268463,450.1887171268463,450.1887171268463,450.1887171268463,450.1887171268463,454.02188086509705,1,3.9825377464294434,None,,,,,,,,,,,,,,,,,,8,6,2025-02-13_11h54.22.936,comp,2024.2.5,58.379332374797656,2025-02-13 11h58.46.869410 -0500,
73,73,0,filler_random,None,None,None,None,None,None,None,None,None,None,1,1.9409816265106201,None,,,,,0,0,0,0,0,73,73,151,454.0385136604309,,,,,,,,,,,,,,,,,,,,,,,,,,,,,,,,,,,,,,,,,,,,,,,,,,,,,,,,,,,,,,,,,,,,,,,,,,,,,,,,,,183.52557580149033,114.07186563718022,134.56259986510952,57.08262851510541,171.42287079858858,91.68061018023985,4.0,4.2,-182,-19,0,-274,170,-16,454.02360701560974,454.02368664741516,454.0277614593506,454.0385136604309,454.1903598308563,454.1903598308563,454.1903598308563,454.1903598308563,454.1903598308563,454.1903598308563,454.1903598308563,455.9982719421387,1,1.9409816265106201,None,,,,,,,,,,,,,,,,,,8,6,2025-02-13_11h54.22.936,comp,2024.2.5,58.379332374797656,2025-02-13 11h58.46.869410 -0500,
74,74,0,critical,dwh,60.0,3.0,upper,100.0,100.0,125.0,200.0,200.0,125.0,2,2.3006646633148193,None,,,,,0,0,0,0,0,74,74,69,456.01572728157043,,,,,,,,,,,,,,,,,,,,,,,,,,,,,,,,,,,,,,,,,,,,,,,,,,,,,,,,,,,,,,,,,,,,,,,,,,,,,,,,,,100.0,100.0,125.0,200.0,200.0,125.0,3.0,3.2,-246,-266,0,-15,258,257,455.999703168869,455.9997787475586,456.0025599002838,456.01572728157043,456.15555357933044,456.15555357933044,456.15555357933044,456.15555357933044,456.15555357933044,456.15555357933044,456.15555357933044,458.3213746547699,2,2.3006646633148193,None,,,,,,,,,,,,,,,,,,8,6,2025-02-13_11h54.22.936,comp,2024.2.5,58.379332374797656,2025-02-13 11h58.46.869410 -0500,
75,75,0,critical,whd,60.0,2.1,lower,57.0,133.0,133.0,57.0,55.0,55.0,1,2.35366153717041,None,,,,,0,0,0,0,0,75,75,38,458.3377799987793,,,,,,,,,,,,,,,,,,,,,,,,,,,,,,,,,,,,,,,,,,,,,,,,,,,,,,,,,,,,,,,,,,,,,,,,,,,,,,,,,,57.0,133.0,133.0,57.0,55.0,55.0,2.1,2.12,-191,-263,0,-256,152,267,458.3229103088379,458.3229908943176,458.32603311538696,458.3377799987793,458.4911570549011,458.4911570549011,458.4911570549011,458.4911570549011,458.4911570549011,458.4911570549011,458.4911570549011,460.7083101272583,1,2.35366153717041,None,,,,,,,,,,,,,,,,,,8,6,2025-02-13_11h54.22.936,comp,2024.2.5,58.379332374797656,2025-02-13 11h58.46.869410 -0500,
76,76,0,filler_square,None,None,None,None,None,None,None,None,None,None,1,2.360326051712036,None,,,,,0,0,0,0,0,76,76,207,460.72395944595337,,,,,,,,,,,,,,,,,,,,,,,,,,,,,,,,,,,,,,,,,,,,,,,,,,,,,,,,,,,,,,,,,,,,,,,,,,,,,,,,,,122.90395294465662,122.90395294465662,86.35358234775401,87.44250107032406,76.14992964635678,57.94289638494147,2.1,2.11,-201,290,0,274,169,-258,460.7102909088135,460.7103931903839,460.7136564254761,460.72395944595337,460.87474489212036,460.87474489212036,460.87474489212036,460.87474489212036,460.87474489212036,460.87474489212036,460.87474489212036,463.0900068283081,1,2.360326051712036,None,,,,,,,,,,,,,,,,,,8,6,2025-02-13_11h54.22.936,comp,2024.2.5,58.379332374797656,2025-02-13 11h58.46.869410 -0500,
77,77,0,critical,hdw,45.0,2.1,upper,200.0,125.0,117.0,117.0,125.0,200.0,3,4.334025144577026,None,,,,,0,0,0,0,0,77,77,21,463.11019682884216,,,,,,,,,,,,,,,,,,,,,,,,,,,,,,,,,,,,,,,,,,,,,,,,,,,,,,,,,,,,,,,,,,,,,,,,,,,,,,,,,,200.0,125.0,117.0,117.0,125.0,200.0,2.1,2.11,-217,283,0,278,254,-262,463.09140253067017,463.09147906303406,463.0944106578827,463.11019682884216,463.2579605579376,463.2579605579376,463.2579605579376,463.2579605579376,463.2579605579376,463.2579605579376,463.2579605579376,467.44700360298157,3,4.334025144577026,None,,,,,,,,,,,,,,,,,,8,6,2025-02-13_11h54.22.936,comp,2024.2.5,58.379332374797656,2025-02-13 11h58.46.869410 -0500,
78,78,0,filler_random,None,None,None,None,None,None,None,None,None,None,2,7.788409233093262,None,,,,,0,0,0,0,0,78,78,157,467.46319246292114,,,,,,,,,,,,,,,,,,,,,,,,,,,,,,,,,,,,,,,,,,,,,,,,,,,,,,,,,,,,,,,,,,,,,,,,,,,,,,,,,,149.49825960498137,142.59576218476388,198.39161214591527,183.45103555203144,187.217468873437,172.5546716240687,3.0,3.2,-259,-289,0,16,274,269,467.44872069358826,467.448823928833,467.45164346694946,467.46319246292114,467.61513113975525,467.61513113975525,467.61513113975525,467.61513113975525,467.61513113975525,467.61513113975525,467.61513113975525,475.2621817588806,2,7.788409233093262,None,,,,,,,,,,,,,,,,,,8,6,2025-02-13_11h54.22.936,comp,2024.2.5,58.379332374797656,2025-02-13 11h58.46.869410 -0500,
79,79,0,critical,wdh,60.0,4.0,lower,57.0,133.0,55.0,55.0,133.0,57.0,1,9.11831784248352,None,,,,,0,0,0,0,0,79,79,82,475.2776048183441,,,,,,,,,,,,,,,,,,,,,,,,,,,,,,,,,,,,,,,,,,,,,,,,,,,,,,,,,,,,,,,,,,,,,,,,,,,,,,,,,,57.0,133.0,55.0,55.0,133.0,57.0,4.0,4.2,-190,12,0,-260,152,4,475.2637071609497,475.26380920410156,475.2667655944824,475.2776048183441,475.42733907699585,475.42733907699585,475.42733907699585,475.42733907699585,475.42733907699585,475.42733907699585,475.42733907699585,484.3979682922363,1,9.11831784248352,None,,,,,,,,,,,,,,,,,,8,6,2025-02-13_11h54.22.936,comp,2024.2.5,58.379332374797656,2025-02-13 11h58.46.869410 -0500,
80,80,0,critical,wdh,45.0,3.0,lower,57.0,133.0,65.0,65.0,133.0,57.0,3,8.253314733505249,None,,,,,0,0,0,0,0,80,80,74,484.41437339782715,,,,,,,,,,,,,,,,,,,,,,,,,,,,,,,,,,,,,,,,,,,,,,,,,,,,,,,,,,,,,,,,,,,,,,,,,,,,,,,,,,57.0,133.0,65.0,65.0,133.0,57.0,3.0,3.1,-195,289,0,-9,157,-283,484.399516582489,484.3995954990387,484.4029357433319,484.41437339782715,484.56768774986267,484.56768774986267,484.56768774986267,484.56768774986267,484.56768774986267,484.56768774986267,484.56768774986267,492.68421506881714,3,8.253314733505249,None,,,,,,,,,,,,,,,,,,8,6,2025-02-13_11h54.22.936,comp,2024.2.5,58.379332374797656,2025-02-13 11h58.46.869410 -0500,
81,81,0,filler_square,None,None,None,None,None,None,None,None,None,None,1,9.055756092071533,None,,,,,0,0,0,0,0,81,81,170,492.69944071769714,,,,,,,,,,,,,,,,,,,,,,,,,,,,,,,,,,,,,,,,,,,,,,,,,,,,,,,,,,,,,,,,,,,,,,,,,,,,,,,,,,63.94902977377172,63.94902977377172,57.32315580110777,60.68555014012159,61.50710378314379,62.37787054706956,2.1,2.12,-158,-255,0,-259,158,261,492.68594551086426,492.6860249042511,492.68904519081116,492.69944071769714,492.8503255844116,492.8503255844116,492.8503255844116,492.8503255844116,492.8503255844116,492.8503255844116,492.8503255844116,501.7694790363312,1,9.055756092071533,None,,,,,,,,,,,,,,,,,,8,6,2025-02-13_11h54.22.936,comp,2024.2.5,58.379332374797656,2025-02-13 11h58.46.869410 -0500,
82,82,0,critical,hwd,45.0,1.0,upper,200.0,125.0,125.0,200.0,117.0,117.0,2,8.721842050552368,None,,,,,0,0,0,0,0,82,82,97,501.78554940223694,,,,,,,,,,,,,,,,,,,,,,,,,,,,,,,,,,,,,,,,,,,,,,,,,,,,,,,,,,,,,,,,,,,,,,,,,,,,,,,,,,200.0,125.0,125.0,200.0,117.0,117.0,1.0,1.3,222,-273,480,-251,734,-258,501.7710032463074,501.77108335494995,501.7750644683838,501.78554940223694,501.93934392929077,501.93934392929077,501.93934392929077,501.93934392929077,501.93934392929077,501.93934392929077,501.93934392929077,510.51165437698364,2,8.721842050552368,None,,,,,,,,,,,,,,,,,,8,6,2025-02-13_11h54.22.936,comp,2024.2.5,58.379332374797656,2025-02-13 11h58.46.869410 -0500,
83,83,0,critical,dwh,45.0,1.0,upper,117.0,117.0,125.0,200.0,200.0,125.0,3,4.2918500900268555,None,,,,,0,0,0,0,0,83,83,61,510.52765941619873,,,,,,,,,,,,,,,,,,,,,,,,,,,,,,,,,,,,,,,,,,,,,,,,,,,,,,,,,,,,,,,,,,,,,,,,,,,,,,,,,,117.0,117.0,125.0,200.0,200.0,125.0,1.0,1.2,-254,5,0,3,258,-13,510.5131313800812,510.51320910453796,510.51605796813965,510.52765941619873,510.67244696617126,510.67244696617126,510.67244696617126,510.67244696617126,510.67244696617126,510.67244696617126,510.67244696617126,514.8225619792938,3,4.2918500900268555,None,,,,,,,,,,,,,,,,,,8,6,2025-02-13_11h54.22.936,comp,2024.2.5,58.379332374797656,2025-02-13 11h58.46.869410 -0500,
84,84,0,filler_random,None,None,None,None,None,None,None,None,None,None,2,1.6568262577056885,None,,,,,0,0,0,0,0,84,84,138,514.8431482315063,,,,,,,,,,,,,,,,,,,,,,,,,,,,,,,,,,,,,,,,,,,,,,,,,,,,,,,,,,,,,,,,,,,,,,,,,,,,,,,,,,150.151948743851,110.21109835172794,177.393368078391,131.08072574321744,171.343966030057,64.36050601377431,2.2,2.22,-217,268,0,-266,194,-280,514.8242454528809,514.8243248462677,514.8273651599884,514.8431482315063,514.992329120636,514.992329120636,514.992329120636,514.992329120636,514.992329120636,514.992329120636,514.992329120636,516.5073592662811,2,1.6568262577056885,None,,,,,,,,,,,,,,,,,,8,6,2025-02-13_11h54.22.936,comp,2024.2.5,58.379332374797656,2025-02-13 11h58.46.869410 -0500,
85,85,0,catch,None,None,None,None,None,None,None,None,None,None,3,2.176697015762329,None,,,,,0,0,0,0,0,85,85,120,516.5242230892181,,,,,,,,,,,,,,,,,,,,,,,,,,,,,,,,,,,,,,,,,,,,,,,,,,,,,,,,,,,,,,,,,,,,,,,,,,,,,,,,,,112,78,60,130,174,151,3.0,3.2,-200,-257,0,7,236,271,516.5094316005707,516.5095088481903,516.5135917663574,516.5242230892181,516.6729454994202,516.6729454994202,516.6729454994202,516.6729454994202,516.6729454994202,516.6729454994202,516.6729454994202,518.707099199295,3,2.176697015762329,None,,,,,,,,,,,,,,,,,,8,6,2025-02-13_11h54.22.936,comp,2024.2.5,58.379332374797656,2025-02-13 11h58.46.869410 -0500,
86,86,0,critical,hdw,45.0,4.0,lower,133.0,57.0,65.0,65.0,57.0,133.0,3,8.844213962554932,None,,,,,0,0,0,0,0,86,86,112,518.7275338172913,,,,,,,,,,,,,,,,,,,,,,,,,,,,,,,,,,,,,,,,,,,,,,,,,,,,,,,,,,,,,,,,,,,,,,,,,,,,,,,,,,133.0,57.0,65.0,65.0,57.0,133.0,4.0,4.1,-157,-257,0,1,195,-263,518.7086217403412,518.7087001800537,518.7117564678192,518.7275338172913,518.8740711212158,518.8740711212158,518.8740711212158,518.8740711212158,518.8740711212158,518.8740711212158,518.8740711212158,527.5839357376099,3,8.844213962554932,None,,,,,,,,,,,,,,,,,,8,6,2025-02-13_11h54.22.936,comp,2024.2.5,58.379332374797656,2025-02-13 11h58.46.869410 -0500,
87,87,0,filler_random,None,None,None,None,None,None,None,None,None,None,1,4.720849514007568,None,,,,,0,0,0,0,0,87,87,135,527.6024882793427,,,,,,,,,,,,,,,,,,,,,,,,,,,,,,,,,,,,,,,,,,,,,,,,,,,,,,,,,,,,,,,,,,,,,,,,,,,,,,,,,,134.95226522566628,196.35248607084586,83.51988083770405,71.96329158683712,127.68269995814123,66.34769528606526,1.0,1.3,250,-268,480,-267,645,-280,527.585928440094,527.5860078334808,527.5892333984375,527.6024882793427,527.7448813915253,527.7448813915253,527.7448813915253,527.7448813915253,527.7448813915253,527.7448813915253,527.7448813915253,532.3279702663422,1,4.720849514007568,None,,,,,,,,,,,,,,,,,,8,6,2025-02-13_11h54.22.936,comp,2024.2.5,58.379332374797656,2025-02-13 11h58.46.869410 -0500,
88,88,0,filler_square,None,None,None,None,None,None,None,None,None,None,2,2.655078411102295,None,,,,,0,0,0,0,0,88,88,184,532.3485062122345,,,,,,,,,,,,,,,,,,,,,,,,,,,,,,,,,,,,,,,,,,,,,,,,,,,,,,,,,,,,,,,,,,,,,,,,,,,,,,,,,,81.00427187802275,74.22303343808635,109.14762369690574,109.14762369690574,76.74045292482191,80.90517581880832,3.0,3.2,-188,-281,0,3,191,261,532.3296418190002,532.329717874527,532.3327062129974,532.3485062122345,532.4961302280426,532.4961302280426,532.4961302280426,532.4961302280426,532.4961302280426,532.4961302280426,532.4961302280426,535.013072013855,2,2.655078411102295,None,,,,,,,,,,,,,,,,,,8,6,2025-02-13_11h54.22.936,comp,2024.2.5,58.379332374797656,2025-02-13 11h58.46.869410 -0500,
89,89,0,critical,hwd,45.0,2.1,lower,133.0,57.0,57.0,133.0,65.0,65.0,2,3.2793493270874023,None,,,,,0,0,0,0,0,89,89,40,535.0281949043274,,,,,,,,,,,,,,,,,,,,,,,,,,,,,,,,,,,,,,,,,,,,,,,,,,,,,,,,,,,,,,,,,,,,,,,,,,,,,,,,,,133.0,57.0,57.0,133.0,65.0,65.0,2.1,2.12,-191,-262,0,-255,195,258,535.0147290229797,535.0148861408234,535.0183417797089,535.0281949043274,535.1782917976379,535.1782917976379,535.1782917976379,535.1782917976379,535.1782917976379,535.1782917976379,535.1782917976379,538.3129496574402,2,3.2793493270874023,None,,,,,,,,,,,,,,,,,,8,6,2025-02-13_11h54.22.936,comp,2024.2.5,58.379332374797656,2025-02-13 11h58.46.869410 -0500,
90,90,0,filler_random,None,None,None,None,None,None,None,None,None,None,2,2.873570203781128,None,,,,,0,0,0,0,0,90,90,167,538.3292238712311,,,,,,,,,,,,,,,,,,,,,,,,,,,,,,,,,,,,,,,,,,,,,,,,,,,,,,,,,,,,,,,,,,,,,,,,,,,,,,,,,,132.09604152880092,113.88746594090651,191.26689377336493,125.15409862287794,179.94922620013415,136.2386108049036,4.0,4.2,-216,10,0,-262,227,-17,538.3145763874054,538.3146538734436,538.3176229000092,538.3292238712311,538.4829676151276,538.4829676151276,538.4829676151276,538.4829676151276,538.4829676151276,538.4829676151276,538.4829676151276,541.2158885002136,2,2.873570203781128,None,,,,,,,,,,,,,,,,,,8,6,2025-02-13_11h54.22.936,comp,2024.2.5,58.379332374797656,2025-02-13 11h58.46.869410 -0500,
91,91,0,critical,wdh,60.0,1.0,upper,125.0,200.0,100.0,100.0,200.0,125.0,3,4.810784578323364,None,,,,,0,0,0,0,0,91,91,79,541.2321171760559,,,,,,,,,,,,,,,,,,,,,,,,,,,,,,,,,,,,,,,,,,,,,,,,,,,,,,,,,,,,,,,,,,,,,,,,,,,,,,,,,,125.0,200.0,100.0,100.0,200.0,125.0,1.0,1.3,234,-276,480,-253,688,-288,541.2173700332642,541.2174472808838,541.220460653305,541.2321171760559,541.3815100193024,541.3815100193024,541.3815100193024,541.3815100193024,541.3815100193024,541.3815100193024,541.3815100193024,546.055214881897,3,4.810784578323364,None,,,,,,,,,,,,,,,,,,8,6,2025-02-13_11h54.22.936,comp,2024.2.5,58.379332374797656,2025-02-13 11h58.46.869410 -0500,
92,92,0,filler_square,None,None,None,None,None,None,None,None,None,None,1,2.8767523765563965,None,,,,,0,0,0,0,0,92,92,193,546.0706794261932,,,,,,,,,,,,,,,,,,,,,,,,,,,,,,,,,,,,,,,,,,,,,,,,,,,,,,,,,,,,,,,,,,,,,,,,,,,,,,,,,,159.07594652008612,159.07594652008612,88.26939128365815,123.94365690212231,134.41004451700775,75.15093480179262,1.0,1.3,242,-265,480,-278,676,-255,546.0569658279419,546.0570466518402,546.0599236488342,546.0706794261932,546.2156145572662,546.2156145572662,546.2156145572662,546.2156145572662,546.2156145572662,546.2156145572662,546.2156145572662,548.9507551193237,1,2.8767523765563965,None,,,,,,,,,,,,,,,,,,8,6,2025-02-13_11h54.22.936,comp,2024.2.5,58.379332374797656,2025-02-13 11h58.46.869410 -0500,
93,93,0,critical,hdw,60.0,2.1,upper,200.0,125.0,100.0,100.0,125.0,200.0,3,1.9246935844421387,None,,,,,0,0,0,0,0,93,93,47,548.9667673110962,,,,,,,,,,,,,,,,,,,,,,,,,,,,,,,,,,,,,,,,,,,,,,,,,,,,,,,,,,,,,,,,,,,,,,,,,,,,,,,,,,200.0,125.0,100.0,100.0,125.0,200.0,2.1,2.11,-208,265,0,286,246,-257,548.9522776603699,548.9523601531982,548.9557206630707,548.9667673110962,549.1163771152496,549.1163771152496,549.1163771152496,549.1163771152496,549.1163771152496,549.1163771152496,549.1163771152496,550.8977708816528,3,1.9246935844421387,None,,,,,,,,,,,,,,,,,,8,6,2025-02-13_11h54.22.936,comp,2024.2.5,58.379332374797656,2025-02-13 11h58.46.869410 -0500,
94,94,0,filler_square,None,None,None,None,None,None,None,None,None,None,3,1.5848240852355957,None,,,,,0,0,0,0,0,94,94,203,550.9141104221344,,,,,,,,,,,,,,,,,,,,,,,,,,,,,,,,,,,,,,,,,,,,,,,,,,,,,,,,,,,,,,,,,,,,,,,,,,,,,,,,,,128.92994148901107,155.1306722674655,118.97640106458473,84.4929945936127,174.30436429183834,174.30436429183834,1.0,1.1,-696,256,-480,282,-255,279,550.8996334075928,550.8997130393982,550.902562379837,550.9141104221344,551.0653343200684,551.0653343200684,551.0653343200684,551.0653343200684,551.0653343200684,551.0653343200684,551.0653343200684,552.5140099525452,3,1.5848240852355957,None,,,,,,,,,,,,,,,,,,8,6,2025-02-13_11h54.22.936,comp,2024.2.5,58.379332374797656,2025-02-13 11h58.46.869410 -0500,
95,95,0,filler_random,None,None,None,None,None,None,None,None,None,None,2,1.8364078998565674,None,,,,,0,0,0,0,0,95,95,150,552.5343232154846,,,,,,,,,,,,,,,,,,,,,,,,,,,,,,,,,,,,,,,,,,,,,,,,,,,,,,,,,,,,,,,,,,,,,,,,,,,,,,,,,,140.5517254911749,162.8491197282769,179.86777532578742,158.0582116113562,136.4218994477215,84.61564858596458,1.0,1.3,224,-274,480,-271,697,-263,552.5157380104065,552.5158565044403,552.518723487854,552.5343232154846,552.6769731044769,552.6769731044769,552.6769731044769,552.6769731044769,552.6769731044769,552.6769731044769,552.6769731044769,554.3856906890869,2,1.8364078998565674,None,,,,,,,,,,,,,,,,,,8,6,2025-02-13_11h54.22.936,comp,2024.2.5,58.379332374797656,2025-02-13 11h58.46.869410 -0500,
96,96,0,filler_square,None,None,None,None,None,None,None,None,None,None,2,1.609084129333496,None,,,,,0,0,0,0,0,96,96,183,554.4028189182281,,,,,,,,,,,,,,,,,,,,,,,,,,,,,,,,,,,,,,,,,,,,,,,,,,,,,,,,,,,,,,,,,,,,,,,,,,,,,,,,,,115.28384974196662,124.02194821480175,146.65742378501312,146.65742378501312,121.38518141919658,69.15284445662277,2.1,2.11,-231,262,0,274,204,-260,554.3875548839569,554.3876333236694,554.3917179107666,554.4028189182281,554.5517075061798,554.5517075061798,554.5517075061798,554.5517075061798,554.5517075061798,554.5517075061798,554.5517075061798,556.0197441577911,2,1.609084129333496,None,,,,,,,,,,,,,,,,,,8,6,2025-02-13_11h54.22.936,comp,2024.2.5,58.379332374797656,2025-02-13 11h58.46.869410 -0500,
97,97,0,filler_random,None,None,None,None,None,None,None,None,None,None,1,1.3391132354736328,None,,,,,0,0,0,0,0,97,97,142,556.0400800704956,,,,,,,,,,,,,,,,,,,,,,,,,,,,,,,,,,,,,,,,,,,,,,,,,,,,,,,,,,,,,,,,,,,,,,,,,,,,,,,,,,146.43244433953674,144.41955655250376,106.65010370776864,60.957540765537594,63.12292981533918,112.1309953846689,1.0,1.2,-199,17,0,-12,183,-12,556.0214238166809,556.0215239524841,556.0247344970703,556.0400800704956,556.1852502822876,556.1852502822876,556.1852502822876,556.1852502822876,556.1852502822876,556.1852502822876,556.1852502822876,557.3883044719696,1,1.3391132354736328,None,,,,,,,,,,,,,,,,,,8,6,2025-02-13_11h54.22.936,comp,2024.2.5,58.379332374797656,2025-02-13 11h58.46.869410 -0500,
98,98,0,filler_random,None,None,None,None,None,None,None,None,None,None,2,1.9664931297302246,None,,,,,0,0,0,0,0,98,98,155,557.4046866893768,,,,,,,,,,,,,,,,,,,,,,,,,,,,,,,,,,,,,,,,,,,,,,,,,,,,,,,,,,,,,,,,,,,,,,,,,,,,,,,,,,197.6307447596899,87.85609372504848,185.36625124010706,148.66981423633382,155.026943569389,79.86037116137238,1.0,1.1,-694,270,-480,253,-270,277,557.3904030323029,557.3904826641083,557.3938302993774,557.4046866893768,557.5567142963409,557.5567142963409,557.5567142963409,557.5567142963409,557.5567142963409,557.5567142963409,557.5567142963409,559.3737473487854,2,1.9664931297302246,None,,,,,,,,,,,,,,,,,,8,6,2025-02-13_11h54.22.936,comp,2024.2.5,58.379332374797656,2025-02-13 11h58.46.869410 -0500,
99,99,0,filler_square,None,None,None,None,None,None,None,None,None,None,2,2.0114896297454834,None,,,,,0,0,0,0,0,99,99,179,559.3911502361298,,,,,,,,,,,,,,,,,,,,,,,,,,,,,,,,,,,,,,,,,,,,,,,,,,,,,,,,,,,,,,,,,,,,,,,,,,,,,,,,,,63.177508473900765,138.58235636218026,170.53536166888262,170.53536166888262,134.96704901698394,127.99966980805327,4.0,4.1,-251,-287,0,17,245,-260,559.3760633468628,559.3761434555054,559.3794777393341,559.3911502361298,559.5384047031403,559.5384047031403,559.5384047031403,559.5384047031403,559.5384047031403,559.5384047031403,559.5384047031403,561.4059951305389,2,2.0114896297454834,None,,,,,,,,,,,,,,,,,,8,6,2025-02-13_11h54.22.936,comp,2024.2.5,58.379332374797656,2025-02-13 11h58.46.869410 -0500,
100,100,0,filler_random,None,None,None,None,None,None,None,None,None,None,2,1.9001247882843018,None,,,,,0,0,0,0,0,100,100,149,561.4225370883942,,,,,,,,,,,,,,,,,,,,,,,,,,,,,,,,,,,,,,,,,,,,,,,,,,,,,,,,,,,,,,,,,,,,,,,,,,,,,,,,,,144.5979162950559,62.81734955370651,140.05282325912023,198.44843444166145,144.3928915148931,163.48449074907415,2.1,2.11,-227,287,0,276,277,-262,561.4081432819366,561.4082255363464,561.4116868972778,561.4225370883942,561.570207118988,561.570207118988,561.570207118988,561.570207118988,561.570207118988,561.570207118988,561.570207118988,563.3690755367279,2,1.9001247882843018,None,,,,,,,,,,,,,,,,,,8,6,2025-02-13_11h54.22.936,comp,2024.2.5,58.379332374797656,2025-02-13 11h58.46.869410 -0500,
101,101,0,critical,hwd,45.0,2.1,upper,200.0,125.0,125.0,200.0,117.0,117.0,2,4.767007350921631,None,,,,,0,0,0,0,0,101,101,41,563.38765001297,,,,,,,,,,,,,,,,,,,,,,,,,,,,,,,,,,,,,,,,,,,,,,,,,,,,,,,,,,,,,,,,,,,,,,,,,,,,,,,,,,200.0,125.0,125.0,200.0,117.0,117.0,2.1,2.11,-258,283,0,285,254,-288,563.3705213069916,563.3705959320068,563.3734266757965,563.38765001297,563.5225307941437,563.5225307941437,563.5225307941437,563.5225307941437,563.5225307941437,563.5225307941437,563.5225307941437,568.1719334125519,2,4.767007350921631,None,,,,,,,,,,,,,,,,,,8,6,2025-02-13_11h54.22.936,comp,2024.2.5,58.379332374797656,2025-02-13 11h58.46.869410 -0500,
102,102,0,filler_random,None,None,None,None,None,None,None,None,None,None,3,2.0704267024993896,None,,,,,0,0,0,0,0,102,102,154,568.1880784034729,,,,,,,,,,,,,,,,,,,,,,,,,,,,,,,,,,,,,,,,,,,,,,,,,,,,,,,,,,,,,,,,,,,,,,,,,,,,,,,,,,67.9882138383249,158.92035821674898,63.62637762525429,94.6616490205684,171.43056241364684,112.15299039899011,2.2,2.21,-223,-262,0,279,199,289,568.1736221313477,568.1736962795258,568.1768095493317,568.1880784034729,568.3432307243347,568.3432307243347,568.3432307243347,568.3432307243347,568.3432307243347,568.3432307243347,568.3432307243347,570.2729530334473,3,2.0704267024993896,None,,,,,,,,,,,,,,,,,,8,6,2025-02-13_11h54.22.936,comp,2024.2.5,58.379332374797656,2025-02-13 11h58.46.869410 -0500,
103,103,0,filler_square,None,None,None,None,None,None,None,None,None,None,1,6.3050453662872314,None,,,,,0,0,0,0,0,103,103,187,570.2895500659943,,,,,,,,,,,,,,,,,,,,,,,,,,,,,,,,,,,,,,,,,,,,,,,,,,,,,,,,,,,,,,,,,,,,,,,,,,,,,,,,,,184.9097023318497,184.9097023318497,162.04134978012843,82.64740894428218,61.709874035239814,159.4680425322299,4.0,4.2,-230,8,0,-277,217,-6,570.2747175693512,570.2748517990112,570.2781400680542,570.2895500659943,570.4408602714539,570.4408602714539,570.4408602714539,570.4408602714539,570.4408602714539,570.4408602714539,570.4408602714539,576.6083416938782,1,6.3050453662872314,None,,,,,,,,,,,,,,,,,,8,6,2025-02-13_11h54.22.936,comp,2024.2.5,58.379332374797656,2025-02-13 11h58.46.869410 -0500,
104,104,0,critical,dwh,60.0,2.1,upper,100.0,100.0,125.0,200.0,200.0,125.0,2,2.082569122314453,None,,,,,0,0,0,0,0,104,104,7,576.6238734722137,,,,,,,,,,,,,,,,,,,,,,,,,,,,,,,,,,,,,,,,,,,,,,,,,,,,,,,,,,,,,,,,,,,,,,,,,,,,,,,,,,100.0,100.0,125.0,200.0,200.0,125.0,2.1,2.12,-246,-275,0,-255,258,258,576.6098952293396,576.609970331192,576.6129772663116,576.6238734722137,576.7745888233185,576.7745888233185,576.7745888233185,576.7745888233185,576.7745888233185,576.7745888233185,576.7745888233185,578.7099096775055,2,2.082569122314453,None,,,,,,,,,,,,,,,,,,8,6,2025-02-13_11h54.22.936,comp,2024.2.5,58.379332374797656,2025-02-13 11h58.46.869410 -0500,
105,105,0,filler_random,None,None,None,None,None,None,None,None,None,None,1,3.698599338531494,None,,,,,0,0,0,0,0,105,105,137,578.7284691333771,,,,,,,,,,,,,,,,,,,,,,,,,,,,,,,,,,,,,,,,,,,,,,,,,,,,,,,,,,,,,,,,,,,,,,,,,,,,,,,,,,106.16405411405908,192.3192749636611,130.76094241944082,82.52590774944058,151.34418078217107,151.74215217252558,2.1,2.12,-233,-270,0,-255,213,250,578.7117056846619,578.7118725776672,578.7154462337494,578.7284691333771,578.8751356601715,578.8751356601715,578.8751356601715,578.8751356601715,578.8751356601715,578.8751356601715,578.8751356601715,582.4439051151276,1,3.698599338531494,None,,,,,,,,,,,,,,,,,,8,6,2025-02-13_11h54.22.936,comp,2024.2.5,58.379332374797656,2025-02-13 11h58.46.869410 -0500,
106,106,0,critical,dwh,45.0,2.1,lower,65.0,65.0,57.0,133.0,133.0,57.0,2,3.303539276123047,None,,,,,0,0,0,0,0,106,106,4,582.4590384960175,,,,,,,,,,,,,,,,,,,,,,,,,,,,,,,,,,,,,,,,,,,,,,,,,,,,,,,,,,,,,,,,,,,,,,,,,,,,,,,,,,65.0,65.0,57.0,133.0,133.0,57.0,2.1,2.12,-195,-279,0,-275,191,286,582.445405960083,582.4454810619354,582.4487447738647,582.4590384960175,582.6111385822296,582.6111385822296,582.6111385822296,582.6111385822296,582.6111385822296,582.6111385822296,582.6111385822296,585.7805707454681,2,3.303539276123047,None,,,,,,,,,,,,,,,,,,8,6,2025-02-13_11h54.22.936,comp,2024.2.5,58.379332374797656,2025-02-13 11h58.46.869410 -0500,
107,107,0,critical,whd,60.0,1.0,lower,57.0,133.0,133.0,57.0,55.0,55.0,2,3.6818604469299316,None,,,,,0,0,0,0,0,107,107,90,585.8005723953247,,,,,,,,,,,,,,,,,,,,,,,,,,,,,,,,,,,,,,,,,,,,,,,,,,,,,,,,,,,,,,,,,,,,,,,,,,,,,,,,,,57.0,133.0,133.0,57.0,55.0,55.0,1.0,1.1,-671,281,-480,286,-328,263,585.7822031974792,585.7823088169098,585.7853643894196,585.8005723953247,585.9443912506104,585.9443912506104,585.9443912506104,585.9443912506104,585.9443912506104,585.9443912506104,585.9443912506104,589.4999632835388,2,3.6818604469299316,None,,,,,,,,,,,,,,,,,,8,6,2025-02-13_11h54.22.936,comp,2024.2.5,58.379332374797656,2025-02-13 11h58.46.869410 -0500,
108,108,0,filler_square,None,None,None,None,None,None,None,None,None,None,1,2.676938056945801,None,,,,,0,0,0,0,0,108,108,205,589.517410993576,,,,,,,,,,,,,,,,,,,,,,,,,,,,,,,,,,,,,,,,,,,,,,,,,,,,,,,,,,,,,,,,,,,,,,,,,,,,,,,,,,162.53389349037298,162.53389349037298,124.48702545803165,147.96496594208836,108.20081079363402,145.51001174000478,2.2,2.21,-251,-272,0,276,243,273,589.5017457008362,589.5018484592438,589.5047249794006,589.517410993576,589.6633236408234,589.6633236408234,589.6633236408234,589.6633236408234,589.6633236408234,589.6633236408234,589.6633236408234,592.2046222686768,1,2.676938056945801,None,,,,,,,,,,,,,,,,,,8,6,2025-02-13_11h54.22.936,comp,2024.2.5,58.379332374797656,2025-02-13 11h58.46.869410 -0500,
109,109,0,critical,hdw,45.0,4.0,upper,200.0,125.0,117.0,117.0,125.0,200.0,1,5.006064176559448,None,,,,,0,0,0,0,0,109,109,113,592.2207419872284,,,,,,,,,,,,,,,,,,,,,,,,,,,,,,,,,,,,,,,,,,,,,,,,,,,,,,,,,,,,,,,,,,,,,,,,,,,,,,,,,,200.0,125.0,117.0,117.0,125.0,200.0,4.0,4.1,-217,-272,0,-17,254,-278,592.2061569690704,592.2062366008759,592.209151506424,592.2207419872284,592.3691504001617,592.3691504001617,592.3691504001617,592.3691504001617,592.3691504001617,592.3691504001617,592.3691504001617,597.2307274341583,1,5.006064176559448,None,,,,,,,,,,,,,,,,,,8,6,2025-02-13_11h54.22.936,comp,2024.2.5,58.379332374797656,2025-02-13 11h58.46.869410 -0500,
110,110,0,critical,wdh,45.0,1.0,upper,125.0,200.0,117.0,117.0,200.0,125.0,3,3.0880074501037598,None,,,,,0,0,0,0,0,110,110,73,597.2502481937408,,,,,,,,,,,,,,,,,,,,,,,,,,,,,,,,,,,,,,,,,,,,,,,,,,,,,,,,,,,,,,,,,,,,,,,,,,,,,,,,,,125.0,200.0,117.0,117.0,200.0,125.0,1.0,1.2,-254,10,0,-15,217,1,597.2323060035706,597.2323818206787,597.2355918884277,597.2502481937408,597.3979253768921,597.3979253768921,597.3979253768921,597.3979253768921,597.3979253768921,597.3979253768921,597.3979253768921,600.352639913559,3,3.0880074501037598,None,,,,,,,,,,,,,,,,,,8,6,2025-02-13_11h54.22.936,comp,2024.2.5,58.379332374797656,2025-02-13 11h58.46.869410 -0500,
111,111,0,critical,dhw,60.0,2.1,lower,55.0,55.0,133.0,57.0,57.0,133.0,2,6.369344472885132,None,,,,,0,0,0,0,0,111,111,2,600.3689787387848,,,,,,,,,,,,,,,,,,,,,,,,,,,,,,,,,,,,,,,,,,,,,,,,,,,,,,,,,,,,,,,,,,,,,,,,,,,,,,,,,,55.0,55.0,133.0,57.0,57.0,133.0,2.1,2.11,-152,287,0,265,191,-269,600.3543632030487,600.3544924259186,600.3577780723572,600.3689787387848,600.5168588161469,600.5168588161469,600.5168588161469,600.5168588161469,600.5168588161469,600.5168588161469,600.5168588161469,606.7529511451721,2,6.369344472885132,None,,,,,,,,,,,,,,,,,,8,6,2025-02-13_11h54.22.936,comp,2024.2.5,58.379332374797656,2025-02-13 11h58.46.869410 -0500,
112,112,0,critical,whd,45.0,2.1,lower,57.0,133.0,133.0,57.0,65.0,65.0,2,4.921573638916016,None,,,,,0,0,0,0,0,112,112,12,606.7685513496399,,,,,,,,,,,,,,,,,,,,,,,,,,,,,,,,,,,,,,,,,,,,,,,,,,,,,,,,,,,,,,,,,,,,,,,,,,,,,,,,,,57.0,133.0,133.0,57.0,65.0,65.0,2.1,2.12,-191,-257,0,-286,157,275,606.7545673847198,606.7546863555908,606.7582218647003,606.7685513496399,606.9182748794556,606.9182748794556,606.9182748794556,606.9182748794556,606.9182748794556,606.9182748794556,606.9182748794556,611.7049748897552,2,4.921573638916016,None,,,,,,,,,,,,,,,,,,8,6,2025-02-13_11h54.22.936,comp,2024.2.5,58.379332374797656,2025-02-13 11h58.46.869410 -0500,
113,113,0,critical,dwh,45.0,4.0,upper,117.0,117.0,125.0,200.0,200.0,125.0,2,7.214886903762817,None,,,,,0,0,0,0,0,113,113,65,611.7232093811035,,,,,,,,,,,,,,,,,,,,,,,,,,,,,,,,,,,,,,,,,,,,,,,,,,,,,,,,,,,,,,,,,,,,,,,,,,,,,,,,,,117.0,117.0,125.0,200.0,200.0,125.0,4.0,4.2,-254,5,0,-280,258,1,611.706604719162,611.7066967487335,611.7100596427917,611.7232093811035,611.8693351745605,611.8693351745605,611.8693351745605,611.8693351745605,611.8693351745605,611.8693351745605,611.8693351745605,618.9536032676697,2,7.214886903762817,None,,,,,,,,,,,,,,,,,,8,6,2025-02-13_11h54.22.936,comp,2024.2.5,58.379332374797656,2025-02-13 11h58.46.869410 -0500,
114,114,0,filler_random,None,None,None,None,None,None,None,None,None,None,1,1.977694034576416,None,,,,,0,0,0,0,0,114,114,141,618.9699859619141,,,,,,,,,,,,,,,,,,,,,,,,,,,,,,,,,,,,,,,,,,,,,,,,,,,,,,,,,,,,,,,,,,,,,,,,,,,,,,,,,,177.73746866403974,186.424779567522,70.70743641902041,58.808476894147006,165.66122620584596,89.77359024399875,1.0,1.1,-699,258,-480,263,-310,269,618.9554119110107,618.9555189609528,618.9587597846985,618.9699859619141,619.1217436790466,619.1217436790466,619.1217436790466,619.1217436790466,619.1217436790466,619.1217436790466,619.1217436790466,620.9583740234375,1,1.977694034576416,None,,,,,,,,,,,,,,,,,,8,6,2025-02-13_11h54.22.936,comp,2024.2.5,58.379332374797656,2025-02-13 11h58.46.869410 -0500,
115,115,0,critical,wdh,60.0,2.1,lower,57.0,133.0,55.0,55.0,133.0,57.0,1,4.433516025543213,None,,,,,0,0,0,0,0,115,115,10,620.9765546321869,,,,,,,,,,,,,,,,,,,,,,,,,,,,,,,,,,,,,,,,,,,,,,,,,,,,,,,,,,,,,,,,,,,,,,,,,,,,,,,,,,57.0,133.0,55.0,55.0,133.0,57.0,2.1,2.12,-190,-255,0,-253,152,265,620.9600210189819,620.9601011276245,620.9629521369934,620.9765546321869,621.1227068901062,621.1227068901062,621.1227068901062,621.1227068901062,621.1227068901062,621.1227068901062,621.1227068901062,625.424348115921,1,4.433516025543213,None,,,,,,,,,,,,,,,,,,8,6,2025-02-13_11h54.22.936,comp,2024.2.5,58.379332374797656,2025-02-13 11h58.46.869410 -0500,
116,116,0,filler_square,None,None,None,None,None,None,None,None,None,None,2,3.3615238666534424,None,,,,,0,0,0,0,0,116,116,186,625.4406630992889,,,,,,,,,,,,,,,,,,,,,,,,,,,,,,,,,,,,,,,,,,,,,,,,,,,,,,,,,,,,,,,,,,,,,,,,,,,,,,,,,,107.05088915221775,75.072606458228,186.23971315730358,186.23971315730358,95.46273730331308,71.80093471546977,1.0,1.3,253,-286,480,-289,705,-267,625.4261105060577,625.4261856079102,625.4291942119598,625.4406630992889,625.5943622589111,625.5943622589111,625.5943622589111,625.5943622589111,625.5943622589111,625.5943622589111,625.5943622589111,628.8210647106171,2,3.3615238666534424,None,,,,,,,,,,,,,,,,,,8,6,2025-02-13_11h54.22.936,comp,2024.2.5,58.379332374797656,2025-02-13 11h58.46.869410 -0500,
117,117,0,filler_square,None,None,None,None,None,None,None,None,None,None,3,3.0087549686431885,None,,,,,0,0,0,0,0,117,117,181,628.8415882587433,,,,,,,,,,,,,,,,,,,,,,,,,,,,,,,,,,,,,,,,,,,,,,,,,,,,,,,,,,,,,,,,,,,,,,,,,,,,,,,,,,80.47223664014416,70.04952838119281,59.87244363495318,114.8062574515103,132.7855530764279,132.7855530764279,2.1,2.12,-188,-283,0,-272,220,259,628.8228917121887,628.8230011463165,628.826287984848,628.8415882587433,628.9748983383179,628.9748983383179,628.9748983383179,628.9748983383179,628.9748983383179,628.9748983383179,628.9748983383179,631.8669910430908,3,3.0087549686431885,None,,,,,,,,,,,,,,,,,,8,6,2025-02-13_11h54.22.936,comp,2024.2.5,58.379332374797656,2025-02-13 11h58.46.869410 -0500,
118,118,0,filler_random,None,None,None,None,None,None,None,None,None,None,2,1.7602109909057617,None,,,,,0,0,0,0,0,118,118,169,631.8820290565491,,,,,,,,,,,,,,,,,,,,,,,,,,,,,,,,,,,,,,,,,,,,,,,,,,,,,,,,,,,,,,,,,,,,,,,,,,,,,,,,,,88.10681232001889,85.74021607228903,123.97662629584948,178.10645118880996,57.880129065735375,90.9657835340804,4.0,4.1,-228,-250,0,8,231,-260,631.8687295913696,631.8688473701477,631.8716862201691,631.8820290565491,632.026558637619,632.026558637619,632.026558637619,632.026558637619,632.026558637619,632.026558637619,632.026558637619,633.6592319011688,2,1.7602109909057617,None,,,,,,,,,,,,,,,,,,8,6,2025-02-13_11h54.22.936,comp,2024.2.5,58.379332374797656,2025-02-13 11h58.46.869410 -0500,
119,119,0,critical,wdh,45.0,1.0,lower,57.0,133.0,65.0,65.0,133.0,57.0,1,3.160611152648926,None,,,,,0,0,0,0,0,119,119,72,633.6734466552734,,,,,,,,,,,,,,,,,,,,,,,,,,,,,,,,,,,,,,,,,,,,,,,,,,,,,,,,,,,,,,,,,,,,,,,,,,,,,,,,,,57.0,133.0,65.0,65.0,133.0,57.0,1.0,1.3,285,-281,480,-260,637,-280,633.6608633995056,633.6609392166138,633.6643290519714,633.6734466552734,633.8278224468231,633.8278224468231,633.8278224468231,633.8278224468231,633.8278224468231,633.8278224468231,633.8278224468231,636.8360011577606,1,3.160611152648926,None,,,,,,,,,,,,,,,,,,8,6,2025-02-13_11h54.22.936,comp,2024.2.5,58.379332374797656,2025-02-13 11h58.46.869410 -0500,
120,120,0,filler_square,None,None,None,None,None,None,None,None,None,None,1,1.3496644496917725,None,,,,,0,0,0,0,0,120,120,185,636.8530452251434,,,,,,,,,,,,,,,,,,,,,,,,,,,,,,,,,,,,,,,,,,,,,,,,,,,,,,,,,,,,,,,,,,,,,,,,,,,,,,,,,,165.9182634053003,165.9182634053003,134.79771972556466,102.71289182532107,132.00171294389372,79.10575999673188,4.0,4.2,-230,-16,0,-290,187,17,636.8379034996033,636.8379969596863,636.8412601947784,636.8530452251434,636.9943833351135,636.9943833351135,636.9943833351135,636.9943833351135,636.9943833351135,636.9943833351135,636.9943833351135,638.2099139690399,1,1.3496644496917725,None,,,,,,,,,,,,,,,,,,8,6,2025-02-13_11h54.22.936,comp,2024.2.5,58.379332374797656,2025-02-13 11h58.46.869410 -0500,
121,121,0,critical,dhw,45.0,4.0,upper,117.0,117.0,200.0,125.0,125.0,200.0,3,2.4692153930664062,None,,,,,0,0,0,0,0,121,121,53,638.2285413742065,,,,,,,,,,,,,,,,,,,,,,,,,,,,,,,,,,,,,,,,,,,,,,,,,,,,,,,,,,,,,,,,,,,,,,,,,,,,,,,,,,117.0,117.0,200.0,125.0,125.0,200.0,4.0,4.1,-217,-258,0,14,258,-286,638.2115066051483,638.2115843296051,638.2149024009705,638.2285413742065,638.3819091320038,638.3819091320038,638.3819091320038,638.3819091320038,638.3819091320038,638.3819091320038,638.3819091320038,640.7142174243927,3,2.4692153930664062,None,,,,,,,,,,,,,,,,,,8,6,2025-02-13_11h54.22.936,comp,2024.2.5,58.379332374797656,2025-02-13 11h58.46.869410 -0500,
122,122,0,critical,hdw,60.0,1.0,upper,200.0,125.0,100.0,100.0,125.0,200.0,3,3.190302848815918,None,,,,,0,0,0,0,0,122,122,115,640.7331023216248,,,,,,,,,,,,,,,,,,,,,,,,,,,,,,,,,,,,,,,,,,,,,,,,,,,,,,,,,,,,,,,,,,,,,,,,,,,,,,,,,,200.0,125.0,100.0,100.0,125.0,200.0,1.0,1.3,272,-276,480,-285,726,-254,640.7161333560944,640.7162277698517,640.7191781997681,640.7331023216248,640.8789112567902,640.8789112567902,640.8789112567902,640.8789112567902,640.8789112567902,640.8789112567902,640.8789112567902,643.9304420948029,3,3.190302848815918,None,,,,,,,,,,,,,,,,,,8,6,2025-02-13_11h54.22.936,comp,2024.2.5,58.379332374797656,2025-02-13 11h58.46.869410 -0500,
123,123,0,critical,dhw,45.0,2.1,lower,65.0,65.0,133.0,57.0,57.0,133.0,2,7.102606534957886,None,,,,,0,0,0,0,0,123,123,24,643.9472723007202,,,,,,,,,,,,,,,,,,,,,,,,,,,,,,,,,,,,,,,,,,,,,,,,,,,,,,,,,,,,,,,,,,,,,,,,,,,,,,,,,,65.0,65.0,133.0,57.0,57.0,133.0,2.1,2.12,-157,-265,0,-268,191,262,643.932023525238,643.9321014881134,643.9352707862854,643.9472723007202,644.0951764583588,644.0951764583588,644.0951764583588,644.0951764583588,644.0951764583588,644.0951764583588,644.0951764583588,651.0687334537506,2,7.102606534957886,None,,,,,,,,,,,,,,,,,,8,6,2025-02-13_11h54.22.936,comp,2024.2.5,58.379332374797656,2025-02-13 11h58.46.869410 -0500,
124,124,0,filler_square,None,None,None,None,None,None,None,None,None,None,2,23.780075073242188,None,,,,,0,0,0,0,0,124,124,204,651.0861961841583,,,,,,,,,,,,,,,,,,,,,,,,,,,,,,,,,,,,,,,,,,,,,,,,,,,,,,,,,,,,,,,,,,,,,,,,,,,,,,,,,,127.95538485391064,145.20462100893212,196.45251169708735,196.45251169708735,131.19631243061912,154.31832485461314,4.0,4.1,-267,-266,0,8,271,-287,651.070641040802,651.0707213878632,651.0735666751862,651.0861961841583,651.2310862541199,651.2310862541199,651.2310862541199,651.2310862541199,651.2310862541199,651.2310862541199,651.2310862541199,674.8729577064514,2,23.780075073242188,None,,,,,,,,,,,,,,,,,,8,6,2025-02-13_11h54.22.936,comp,2024.2.5,58.379332374797656,2025-02-13 11h58.46.869410 -0500,
125,125,0,critical,whd,60.0,1.0,upper,125.0,200.0,200.0,125.0,100.0,100.0,2,2.6808202266693115,None,,,,,0,0,0,0,0,125,125,91,674.8892869949341,,,,,,,,,,,,,,,,,,,,,,,,,,,,,,,,,,,,,,,,,,,,,,,,,,,,,,,,,,,,,,,,,,,,,,,,,,,,,,,,,,125.0,200.0,200.0,125.0,100.0,100.0,1.0,1.3,222,-265,480,-289,688,-276,674.874507188797,674.8745858669281,674.8785581588745,674.8892869949341,675.0426561832428,675.0426561832428,675.0426561832428,675.0426561832428,675.0426561832428,675.0426561832428,675.0426561832428,677.588876247406,2,2.6808202266693115,None,,,,,,,,,,,,,,,,,,8,6,2025-02-13_11h54.22.936,comp,2024.2.5,58.379332374797656,2025-02-13 11h58.46.869410 -0500,
126,126,0,filler_square,None,None,None,None,None,None,None,None,None,None,2,1.9485995769500732,None,,,,,0,0,0,0,0,126,126,191,677.6056292057037,,,,,,,,,,,,,,,,,,,,,,,,,,,,,,,,,,,,,,,,,,,,,,,,,,,,,,,,,,,,,,,,,,,,,,,,,,,,,,,,,,89.34968213885878,66.95264609019782,96.563169796529,96.563169796529,72.24379132588413,92.76216987725856,2.1,2.11,-178,270,0,257,191,-259,677.5903820991516,677.5904293060303,677.5922310352325,677.6056292057037,677.7606248855591,677.7606248855591,677.7606248855591,677.7606248855591,677.7606248855591,677.7606248855591,677.7606248855591,679.5582065582275,2,1.9485995769500732,None,,,,,,,,,,,,,,,,,,8,6,2025-02-13_11h54.22.936,comp,2024.2.5,58.379332374797656,2025-02-13 11h58.46.869410 -0500,
127,127,0,critical,hwd,60.0,2.1,lower,133.0,57.0,57.0,133.0,55.0,55.0,2,1.9322900772094727,None,,,,,0,0,0,0,0,127,127,42,679.5733985900879,,,,,,,,,,,,,,,,,,,,,,,,,,,,,,,,,,,,,,,,,,,,,,,,,,,,,,,,,,,,,,,,,,,,,,,,,,,,,,,,,,133.0,57.0,57.0,133.0,55.0,55.0,2.1,2.11,-191,268,0,258,190,-288,679.5595977306366,679.5596902370453,679.5629680156708,679.5733985900879,679.7221341133118,679.7221341133118,679.7221341133118,679.7221341133118,679.7221341133118,679.7221341133118,679.7221341133118,681.5261332988739,2,1.9322900772094727,None,,,,,,,,,,,,,,,,,,8,6,2025-02-13_11h54.22.936,comp,2024.2.5,58.379332374797656,2025-02-13 11h58.46.869410 -0500,
128,128,0,critical,dhw,60.0,3.0,upper,100.0,100.0,200.0,125.0,125.0,200.0,3,1.8415155410766602,None,,,,,0,0,0,0,0,128,128,57,681.5446138381958,,,,,,,,,,,,,,,,,,,,,,,,,,,,,,,,,,,,,,,,,,,,,,,,,,,,,,,,,,,,,,,,,,,,,,,,,,,,,,,,,,100.0,100.0,200.0,125.0,125.0,200.0,3.0,3.2,-208,-259,0,-6,258,285,681.527615070343,681.5276741981506,681.5301098823547,681.5446138381958,681.6939849853516,681.6939849853516,681.6939849853516,681.6939849853516,681.6939849853516,681.6939849853516,681.6939849853516,683.3951156139374,3,1.8415155410766602,None,,,,,,,,,,,,,,,,,,8,6,2025-02-13_11h54.22.936,comp,2024.2.5,58.379332374797656,2025-02-13 11h58.46.869410 -0500,
129,129,0,critical,dwh,60.0,1.0,lower,55.0,55.0,57.0,133.0,133.0,57.0,2,2.236686944961548,None,,,,,0,0,0,0,0,129,129,66,683.4158017635345,,,,,,,,,,,,,,,,,,,,,,,,,,,,,,,,,,,,,,,,,,,,,,,,,,,,,,,,,,,,,,,,,,,,,,,,,,,,,,,,,,55.0,55.0,57.0,133.0,133.0,57.0,1.0,1.1,-670,278,-480,281,-289,260,683.3979871273041,683.3981273174286,683.401077747345,683.4158017635345,683.5561316013336,683.5561316013336,683.5561316013336,683.5561316013336,683.5561316013336,683.5561316013336,683.5561316013336,685.6576585769653,2,2.236686944961548,None,,,,,,,,,,,,,,,,,,8,6,2025-02-13_11h54.22.936,comp,2024.2.5,58.379332374797656,2025-02-13 11h58.46.869410 -0500,
130,130,0,filler_square,None,None,None,None,None,None,None,None,None,None,2,2.792990207672119,None,,,,,0,0,0,0,0,130,130,198,685.6742148399353,,,,,,,,,,,,,,,,,,,,,,,,,,,,,,,,,,,,,,,,,,,,,,,,,,,,,,,,,,,,,,,,,,,,,,,,,,,,,,,,,,58.8368111630316,57.010525152767414,59.15783477969699,59.15783477969699,58.37614867690306,57.575198536698736,2.1,2.11,-154,273,0,282,154,-272,685.6593961715698,685.659471988678,685.6625969409943,685.6742148399353,685.8251214027405,685.8251214027405,685.8251214027405,685.8251214027405,685.8251214027405,685.8251214027405,685.8251214027405,688.4775724411011,2,2.792990207672119,None,,,,,,,,,,,,,,,,,,8,6,2025-02-13_11h54.22.936,comp,2024.2.5,58.379332374797656,2025-02-13 11h58.46.869410 -0500,
131,131,0,catch,None,None,None,None,None,None,None,None,None,None,1,1.563415765762329,None,,,,,0,0,0,0,0,131,131,129,688.4946525096893,,,,,,,,,,,,,,,,,,,,,,,,,,,,,,,,,,,,,,,,,,,,,,,,,,,,,,,,,,,,,,,,,,,,,,,,,,,,,,,,,,186,139,95,95,102,88,2.2,2.22,-213,280,0,-290,188,-289,688.4795472621918,688.4796876907349,688.4830386638641,688.4946525096893,688.6432845592499,688.6432845592499,688.6432845592499,688.6432845592499,688.6432845592499,688.6432845592499,688.6432845592499,690.0603976249695,1,1.563415765762329,None,,,,,,,,,,,,,,,,,,8,6,2025-02-13_11h54.22.936,comp,2024.2.5,58.379332374797656,2025-02-13 11h58.46.869410 -0500,
132,132,0,filler_random,None,None,None,None,None,None,None,None,None,None,1,1.3306751251220703,None,,,,,0,0,0,0,0,132,132,160,690.0789108276367,,,,,,,,,,,,,,,,,,,,,,,,,,,,,,,,,,,,,,,,,,,,,,,,,,,,,,,,,,,,,,,,,,,,,,,,,,,,,,,,,,174.32507205943554,149.20347955760195,196.13078817320095,74.79599033128694,123.42377145172627,62.884292794010705,2.2,2.22,-208,266,0,-253,165,-289,690.0623705387115,690.0624516010284,690.06609416008,690.0789108276367,690.2275390625,690.2275390625,690.2275390625,690.2275390625,690.2275390625,690.2275390625,690.2275390625,691.4116806983948,1,1.3306751251220703,None,,,,,,,,,,,,,,,,,,8,6,2025-02-13_11h54.22.936,comp,2024.2.5,58.379332374797656,2025-02-13 11h58.46.869410 -0500,
133,133,0,critical,dhw,60.0,2.1,lower,55.0,55.0,133.0,57.0,57.0,133.0,3,2.107539653778076,None,,,,,0,0,0,0,0,133,133,26,691.4299359321594,,,,,,,,,,,,,,,,,,,,,,,,,,,,,,,,,,,,,,,,,,,,,,,,,,,,,,,,,,,,,,,,,,,,,,,,,,,,,,,,,,55.0,55.0,133.0,57.0,57.0,133.0,2.1,2.11,-152,281,0,278,191,-259,691.4132704734802,691.4133975505829,691.4169888496399,691.4299359321594,691.5855617523193,691.5855617523193,691.5855617523193,691.5855617523193,691.5855617523193,691.5855617523193,691.5855617523193,693.5482065677643,3,2.107539653778076,None,,,,,,,,,,,,,,,,,,8,6,2025-02-13_11h54.22.936,comp,2024.2.5,58.379332374797656,2025-02-13 11h58.46.869410 -0500,
134,134,0,critical,dhw,45.0,2.1,upper,117.0,117.0,200.0,125.0,125.0,200.0,3,2.325432538986206,None,,,,,0,0,0,0,0,134,134,25,693.5640578269958,,,,,,,,,,,,,,,,,,,,,,,,,,,,,,,,,,,,,,,,,,,,,,,,,,,,,,,,,,,,,,,,,,,,,,,,,,,,,,,,,,117.0,117.0,200.0,125.0,125.0,200.0,2.1,2.11,-217,257,0,274,258,-251,693.549718618393,693.5498290061951,693.553081035614,693.5640578269958,693.7161891460419,693.7161891460419,693.7161891460419,693.7161891460419,693.7161891460419,693.7161891460419,693.7161891460419,695.9005901813507,3,2.325432538986206,None,,,,,,,,,,,,,,,,,,8,6,2025-02-13_11h54.22.936,comp,2024.2.5,58.379332374797656,2025-02-13 11h58.46.869410 -0500,
135,135,0,critical,wdh,45.0,2.1,lower,57.0,133.0,65.0,65.0,133.0,57.0,1,7.618493318557739,None,,,,,0,0,0,0,0,135,135,8,695.9188976287842,,,,,,,,,,,,,,,,,,,,,,,,,,,,,,,,,,,,,,,,,,,,,,,,,,,,,,,,,,,,,,,,,,,,,,,,,,,,,,,,,,57.0,133.0,65.0,65.0,133.0,57.0,2.1,2.12,-195,-254,0,-278,157,276,695.9022431373596,695.9023561477661,695.9056599140167,695.9188976287842,696.0630557537079,696.0630557537079,696.0630557537079,696.0630557537079,696.0630557537079,696.0630557537079,696.0630557537079,703.5515592098236,1,7.618493318557739,None,,,,,,,,,,,,,,,,,,8,6,2025-02-13_11h54.22.936,comp,2024.2.5,58.379332374797656,2025-02-13 11h58.46.869410 -0500,
136,136,0,critical,wdh,45.0,2.1,lower,57.0,133.0,65.0,65.0,133.0,57.0,3,5.218589782714844,None,,,,,0,0,0,0,0,136,136,32,703.5672028064728,,,,,,,,,,,,,,,,,,,,,,,,,,,,,,,,,,,,,,,,,,,,,,,,,,,,,,,,,,,,,,,,,,,,,,,,,,,,,,,,,,57.0,133.0,65.0,65.0,133.0,57.0,2.1,2.11,-195,258,0,274,157,-256,703.5532131195068,703.5532932281494,703.5561361312866,703.5672028064728,703.7141342163086,703.7141342163086,703.7141342163086,703.7141342163086,703.7141342163086,703.7141342163086,703.7141342163086,708.7884232997894,3,5.218589782714844,None,,,,,,,,,,,,,,,,,,8,6,2025-02-13_11h54.22.936,comp,2024.2.5,58.379332374797656,2025-02-13 11h58.46.869410 -0500,
137,137,0,critical,whd,60.0,2.1,upper,125.0,200.0,200.0,125.0,100.0,100.0,2,2.556955337524414,None,,,,,0,0,0,0,0,137,137,15,708.8044447898865,,,,,,,,,,,,,,,,,,,,,,,,,,,,,,,,,,,,,,,,,,,,,,,,,,,,,,,,,,,,,,,,,,,,,,,,,,,,,,,,,,125.0,200.0,200.0,125.0,100.0,100.0,2.1,2.11,-258,273,0,290,208,-285,708.7899780273438,708.7900536060333,708.7928903102875,708.8044447898865,708.948403596878,708.948403596878,708.948403596878,708.948403596878,708.948403596878,708.948403596878,708.948403596878,711.3763830661774,2,2.556955337524414,None,,,,,,,,,,,,,,,,,,8,6,2025-02-13_11h54.22.936,comp,2024.2.5,58.379332374797656,2025-02-13 11h58.46.869410 -0500,
138,138,0,catch,None,None,None,None,None,None,None,None,None,None,1,1.4788689613342285,None,,,,,0,0,0,0,0,138,138,121,711.3953545093536,,,,,,,,,,,,,,,,,,,,,,,,,,,,,,,,,,,,,,,,,,,,,,,,,,,,,,,,,,,,,,,,,,,,,,,,,,,,,,,,,,153,172,95,95,126,64,2.2,2.22,-230,289,0,-281,176,-287,711.3784086704254,711.3784871101379,711.3816711902618,711.3953545093536,711.533876657486,711.533876657486,711.533876657486,711.533876657486,711.533876657486,711.533876657486,711.533876657486,712.8840444087982,1,1.4788689613342285,None,,,,,,,,,,,,,,,,,,8,6,2025-02-13_11h54.22.936,comp,2024.2.5,58.379332374797656,2025-02-13 11h58.46.869410 -0500,
139,139,0,filler_square,None,None,None,None,None,None,None,None,None,None,1,2.381226062774658,None,,,,,0,0,0,0,0,139,139,209,712.9002258777618,,,,,,,,,,,,,,,,,,,,,,,,,,,,,,,,,,,,,,,,,,,,,,,,,,,,,,,,,,,,,,,,,,,,,,,,,,,,,,,,,,113.19363000690657,113.19363000690657,65.98619852841533,70.74783236529814,84.32977263290994,58.93822841558756,2.2,2.22,-188,282,0,-255,161,-255,712.8857724666595,712.8859097957611,712.889318227768,712.9002258777618,713.0359880924225,713.0359880924225,713.0359880924225,713.0359880924225,713.0359880924225,713.0359880924225,713.0359880924225,715.2995111942291,1,2.381226062774658,None,,,,,,,,,,,,,,,,,,8,6,2025-02-13_11h54.22.936,comp,2024.2.5,58.379332374797656,2025-02-13 11h58.46.869410 -0500,
140,140,0,filler_random,None,None,None,None,None,None,None,None,None,None,2,3.5986175537109375,None,,,,,0,0,0,0,0,140,140,130,715.314647436142,,,,,,,,,,,,,,,,,,,,,,,,,,,,,,,,,,,,,,,,,,,,,,,,,,,,,,,,,,,,,,,,,,,,,,,,,,,,,,,,,,123.49928622580352,115.62460345630232,193.46261010657855,101.90749951355522,95.00253959215303,60.64152734624025,3.0,3.2,-205,-268,0,1,177,255,715.3011798858643,715.3012545108795,715.3041625022888,715.314647436142,715.4739248752594,715.4739248752594,715.4739248752594,715.4739248752594,715.4739248752594,715.4739248752594,715.4739248752594,718.9286901950836,2,3.5986175537109375,None,,,,,,,,,,,,,,,,,,8,6,2025-02-13_11h54.22.936,comp,2024.2.5,58.379332374797656,2025-02-13 11h58.46.869410 -0500,
