thisN,thisTrialN,thisRepN,effect,order,distance,config,diag,h_1,w_1,h_2,w_2,h_3,w_3,rect_choice.keys,rect_choice.rt,rect_choice.duration,instructions_loop.thisRepN,instructions_loop.thisTrialN,instructions_loop.thisN,instructions_loop.thisIndex,blocks.thisRepN,blocks.thisTrialN,blocks.thisN,blocks.thisIndex,trials.thisRepN,trials.thisTrialN,trials.thisN,trials.thisIndex,thisRow.t,notes,consent.started,agree_button.started,decline_button.started,consent_img.started,mouse.started,consent.stopped,agree_button.numClicks,agree_button.timesOn,agree_button.timesOff,decline_button.numClicks,decline_button.timesOn,decline_button.timesOff,mouse.x,mouse.y,mouse.leftButton,mouse.midButton,mouse.rightButton,mouse.time,mouse.clicked_name,exp_params.started,exp_params.stopped,welcome.started,welcome_text.started,welcome.stopped,instructions_1.started,instructions_1_text_1.started,instructions_1_text_2.started,key_resp.started,instructions_1.stopped,instructions_loop.key_resp.keys,instructions_loop.key_resp.rt,instructions_loop.key_resp.duration,instructions_2.started,instructions_2_text_1.started,instructions_2_text_2.started,key_resp_2.started,instructions_2.stopped,instructions_loop.key_resp_2.keys,instructions_loop.key_resp_2.rt,instructions_loop.key_resp_2.duration,instructions_3.started,instructions_3_text_1.started,r1_instr3.started,r2_instr3.started,r3_instr3.started,r1_instr3_label.started,r2_instr3_label.started,r3_instr3_label.started,instructions_3_text_3.started,instructions_3_text_4.started,key_resp_3.started,instructions_3.stopped,instructions_loop.key_resp_3.keys,instructions_loop.key_resp_3.rt,instructions_loop.key_resp_3.duration,instructions_4.started,instructions_4_text_1.started,instructions_4_text_3.started,instructions_4_text_2.started,key_resp_4.started,instructions_4.stopped,instructions_loop.key_resp_4.keys,instructions_loop.key_resp_4.rt,instructions_loop.key_resp_4.duration,instructions_5.started,instructions_5_text_1.started,instructions_5_text_2.started,key_resp_5.started,instructions_5.stopped,instructions_loop.key_resp_5.keys,instructions_loop.key_resp_5.rt,instructions_loop.key_resp_5.duration,start_exp.started,start_exp_text.started,key_resp_6.started,start_exp.stopped,key_resp_6.keys,key_resp_6.rt,key_resp_6.duration,h_1_tmp,w_1_tmp,h_2_tmp,w_2_tmp,h_3_tmp,w_3_tmp,config_tmp,config_tmp_1,r_1_x,r_1_y,r_2_x,r_2_y,r_3_x,r_3_y,pre_trial.started,pre_trial.stopped,choice_trial.started,rect_choice.started,r_1.started,r_2.started,r_3.started,r_1_label.started,r_2_label.started,r_3_label.started,prompt.started,choice_trial.stopped,trials.rect_choice.keys,trials.rect_choice.rt,trials.rect_choice.duration,end_block.started,end_block_text.started,end_block.stopped,end.started,end_text.started,key_resp_7.started,end.stopped,key_resp_7.keys,key_resp_7.rt,key_resp_7.duration,debriefing.started,debrief_form.started,end_debrief.started,debriefing.stopped,end_debrief.keys,end_debrief.rt,end_debrief.duration,participant,computer,date,expName,psychopyVersion,frameRate,expStart,
,,,,,,,,,,,,,,,,,,,,,,,,,,,,,,,0.015465497970581055,0.041837453842163086,0.041837453842163086,0.041837453842163086,0.015112876892089844,33.95820760726929,1,[33.9152250289917],[33.91523551940918],0,,,[-70.0],[-503.0],[1],[0],[0],[33.94220852851868],['agree_button'],,,,,,,,,,,,,,,,,,,,,,,,,,,,,,,,,,,,,,,,,,,,,,,,,,,,,,,,,,,,,,,,,,,,,,,,,,,,,,,,,,,,,,,,,,,,,,,,,,,,,,,,,,,9,3,2025-02-13_11h54.31.546,comp,2024.2.5,60.06802633406802,2025-02-13 11h59.07.194939 -0500,
,,,,,,,,,,,,,,,,,,,,,,,,,,,,,,,,,,,,,,,,,,,,,,,,,,33.95844745635986,33.95847940444946,,,,,,,,,,,,,,,,,,,,,,,,,,,,,,,,,,,,,,,,,,,,,,,,,,,,,,,,,,,,,,,,,,,,,,,,,,,,,,,,,,,,,,,,,,,,,,,,,,,,,,,,,9,3,2025-02-13_11h54.31.546,comp,2024.2.5,60.06802633406802,2025-02-13 11h59.07.194939 -0500,
,,,,,,,,,,,,,,,,,,,,,,,,,,,,,,,,,,,,,,,,,,,,,,,,,,,,33.95849967002869,33.971723556518555,35.95887804031372,,,,,,,,,,,,,,,,,,,,,,,,,,,,,,,,,,,,,,,,,,,,,,,,,,,,,,,,,,,,,,,,,,,,,,,,,,,,,,,,,,,,,,,,,,,,,,,,,,,,,,9,3,2025-02-13_11h54.31.546,comp,2024.2.5,60.06802633406802,2025-02-13 11h59.07.194939 -0500,
0,0,0,,,,,,,,,,,,,,,0,0,0,0,,,,,,,,,35.97564959526062,,,,,,,,,,,,,,,,,,,,,,,,,,35.959437131881714,35.97564959526062,35.97564959526062,37.45834398269653,39.87646985054016,space,2.4049453735351562,None,39.876553773880005,39.89189314842224,39.89189314842224,41.391653299331665,46.3760929107666,space,4.967663288116455,None,46.37618112564087,46.39800238609314,46.39800238609314,46.39800238609314,46.39800238609314,46.39800238609314,46.39800238609314,46.39800238609314,46.39800238609314,46.39800238609314,47.87539792060852,53.54338765144348,space,5.6609673500061035,None,53.5434730052948,53.558910846710205,53.558910846710205,53.558910846710205,55.05826759338379,60.159419536590576,space,5.085247755050659,None,60.15950322151184,60.1750271320343,60.1750271320343,61.65885591506958,62.359301805496216,space,0.6844699382781982,None,62.359408378601074,62.37479090690613,62.37479090690613,63.29234719276428,space,0.9048960208892822,None,,,,,,,,,,,,,,,,,,,,,,,,,,,,,,,,,,,,,,,,,,,,,,,9,3,2025-02-13_11h54.31.546,comp,2024.2.5,60.06802633406802,2025-02-13 11h59.07.194939 -0500,
0,0,0,critical,hdw,60.0,1.0,lower,133.0,57.0,55.0,55.0,57.0,133.0,3,5.5998852252960205,None,,,,,0,0,0,0,0,0,0,114,63.35245060920715,,,,,,,,,,,,,,,,,,,,,,,,,,,,,,,,,,,,,,,,,,,,,,,,,,,,,,,,,,,,,,,,,,,,,,,,,,,,,,,,,133.0,57.0,55.0,55.0,57.0,133.0,1.0,1.1,-632,283,-480,271,-290,254,63.33879375457764,63.33884072303772,63.340932846069336,63.35245060920715,63.498133182525635,63.498133182525635,63.498133182525635,63.498133182525635,63.498133182525635,63.498133182525635,63.498133182525635,68.9593813419342,3,5.5998852252960205,None,,,,,,,,,,,,,,,,,,9,3,2025-02-13_11h54.31.546,comp,2024.2.5,60.06802633406802,2025-02-13 11h59.07.194939 -0500,
1,1,0,filler_random,None,None,None,None,None,None,None,None,None,None,1,2.9211618900299072,None,,,,,0,0,0,0,0,1,1,164,68.97500395774841,,,,,,,,,,,,,,,,,,,,,,,,,,,,,,,,,,,,,,,,,,,,,,,,,,,,,,,,,,,,,,,,,,,,,,,,,,,,,,,,,138.77082621286115,185.21144873134648,180.31754625325428,117.93046871432549,111.42375439120465,185.71527611539696,2.2,2.21,-248,-274,0,288,248,265,68.9602963924408,68.96033596992493,68.96284341812134,68.97500395774841,69.1250958442688,69.1250958442688,69.1250958442688,69.1250958442688,69.1250958442688,69.1250958442688,69.1250958442688,71.90966963768005,1,2.9211618900299072,None,,,,,,,,,,,,,,,,,,9,3,2025-02-13_11h54.31.546,comp,2024.2.5,60.06802633406802,2025-02-13 11h59.07.194939 -0500,
2,2,0,critical,whd,60.0,3.0,upper,125.0,200.0,200.0,125.0,100.0,100.0,1,1.7491695880889893,None,,,,,0,0,0,0,0,2,2,93,71.92493009567261,,,,,,,,,,,,,,,,,,,,,,,,,,,,,,,,,,,,,,,,,,,,,,,,,,,,,,,,,,,,,,,,,,,,,,,,,,,,,,,,,125.0,200.0,200.0,125.0,100.0,100.0,3.0,3.1,-258,272,0,9,208,-277,71.91049003601074,71.91053056716919,71.91299533843994,71.92493009567261,72.0749921798706,72.0749921798706,72.0749921798706,72.0749921798706,72.0749921798706,72.0749921798706,72.0749921798706,73.67629075050354,1,1.7491695880889893,None,,,,,,,,,,,,,,,,,,9,3,2025-02-13_11h54.31.546,comp,2024.2.5,60.06802633406802,2025-02-13 11h59.07.194939 -0500,
3,3,0,filler_random,None,None,None,None,None,None,None,None,None,None,2,15.939037561416626,None,,,,,0,0,0,0,0,3,3,147,73.69169902801514,,,,,,,,,,,,,,,,,,,,,,,,,,,,,,,,,,,,,,,,,,,,,,,,,,,,,,,,,,,,,,,,,,,,,,,,,,,,,,,,,157.35451340820697,199.94190931265712,179.4489076273074,168.6319733040807,155.43286084820073,185.66350767014566,1.0,1.1,-760,276,-480,286,-207,289,73.67734718322754,73.67738914489746,73.67994141578674,73.69169902801514,73.84183931350708,73.84183931350708,73.84183931350708,73.84183931350708,73.84183931350708,73.84183931350708,73.84183931350708,89.6432900428772,2,15.939037561416626,None,,,,,,,,,,,,,,,,,,9,3,2025-02-13_11h54.31.546,comp,2024.2.5,60.06802633406802,2025-02-13 11h59.07.194939 -0500,
4,4,0,filler_random,None,None,None,None,None,None,None,None,None,None,3,5.558204412460327,None,,,,,0,0,0,0,0,4,4,163,89.65793919563293,,,,,,,,,,,,,,,,,,,,,,,,,,,,,,,,,,,,,,,,,,,,,,,,,,,,,,,,,,,,,,,,,,,,,,,,,,,,,,,,,129.1325573272711,185.73747633303302,125.62095375486929,140.9132453650077,194.44810792013533,169.91968268144277,1.0,1.1,-739,268,-480,266,-229,266,89.64422869682312,89.64427256584167,89.64647674560547,89.65793919563293,89.80829501152039,89.80829501152039,89.80829501152039,89.80829501152039,89.80829501152039,89.80829501152039,89.80829501152039,95.22613310813904,3,5.558204412460327,None,,,,,,,,,,,,,,,,,,9,3,2025-02-13_11h54.31.546,comp,2024.2.5,60.06802633406802,2025-02-13 11h59.07.194939 -0500,
5,5,0,filler_square,None,None,None,None,None,None,None,None,None,None,2,4.758330583572388,None,,,,,0,0,0,0,0,5,5,172,95.24153518676758,,,,,,,,,,,,,,,,,,,,,,,,,,,,,,,,,,,,,,,,,,,,,,,,,,,,,,,,,,,,,,,,,,,,,,,,,,,,,,,,,76.82999005635693,79.11078761343417,98.71384919517283,98.71384919517283,61.547444943215865,60.25107551666935,2.1,2.12,-185,-263,0,-269,175,269,95.22712087631226,95.22716474533081,95.22932076454163,95.24153518676758,95.39122223854065,95.39122223854065,95.39122223854065,95.39122223854065,95.39122223854065,95.39122223854065,95.39122223854065,100.00920963287354,2,4.758330583572388,None,,,,,,,,,,,,,,,,,,9,3,2025-02-13_11h54.31.546,comp,2024.2.5,60.06802633406802,2025-02-13 11h59.07.194939 -0500,
6,6,0,critical,hdw,60.0,4.0,upper,200.0,125.0,100.0,100.0,125.0,200.0,3,9.648859024047852,None,,,,,0,0,0,0,0,6,6,119,100.02478885650635,,,,,,,,,,,,,,,,,,,,,,,,,,,,,,,,,,,,,,,,,,,,,,,,,,,,,,,,,,,,,,,,,,,,,,,,,,,,,,,,,200.0,125.0,100.0,100.0,125.0,200.0,4.0,4.1,-208,-271,0,-8,246,-280,100.01000618934631,100.0100588798523,100.01246476173401,100.02478885650635,100.1748309135437,100.1748309135437,100.1748309135437,100.1748309135437,100.1748309135437,100.1748309135437,100.1748309135437,109.67582988739014,3,9.648859024047852,None,,,,,,,,,,,,,,,,,,9,3,2025-02-13_11h54.31.546,comp,2024.2.5,60.06802633406802,2025-02-13 11h59.07.194939 -0500,
7,7,0,critical,wdh,60.0,4.0,lower,57.0,133.0,55.0,55.0,133.0,57.0,1,15.62813687324524,None,,,,,0,0,0,0,0,7,7,82,109.69126772880554,,,,,,,,,,,,,,,,,,,,,,,,,,,,,,,,,,,,,,,,,,,,,,,,,,,,,,,,,,,,,,,,,,,,,,,,,,,,,,,,,57.0,133.0,55.0,55.0,133.0,57.0,4.0,4.1,-190,-268,0,9,152,-265,109.67664909362793,109.67668986320496,109.67903590202332,109.69126772880554,109.84114646911621,109.84114646911621,109.84114646911621,109.84114646911621,109.84114646911621,109.84114646911621,109.84114646911621,125.32552814483643,1,15.62813687324524,None,,,,,,,,,,,,,,,,,,9,3,2025-02-13_11h54.31.546,comp,2024.2.5,60.06802633406802,2025-02-13 11h59.07.194939 -0500,
8,8,0,critical,dwh,60.0,1.0,upper,100.0,100.0,125.0,200.0,200.0,125.0,2,2.985663414001465,None,,,,,0,0,0,0,0,8,8,67,125.34110236167908,,,,,,,,,,,,,,,,,,,,,,,,,,,,,,,,,,,,,,,,,,,,,,,,,,,,,,,,,,,,,,,,,,,,,,,,,,,,,,,,,100.0,100.0,125.0,200.0,200.0,125.0,1.0,1.3,234,-275,480,-257,738,-266,125.32633590698242,125.32637786865234,125.328857421875,125.34110236167908,125.49119138717651,125.49119138717651,125.49119138717651,125.49119138717651,125.49119138717651,125.49119138717651,125.49119138717651,128.34246468544006,2,2.985663414001465,None,,,,,,,,,,,,,,,,,,9,3,2025-02-13_11h54.31.546,comp,2024.2.5,60.06802633406802,2025-02-13 11h59.07.194939 -0500,
9,9,0,critical,dhw,60.0,2.1,lower,55.0,55.0,133.0,57.0,57.0,133.0,3,16.10476326942444,None,,,,,0,0,0,0,0,9,9,2,128.3576090335846,,,,,,,,,,,,,,,,,,,,,,,,,,,,,,,,,,,,,,,,,,,,,,,,,,,,,,,,,,,,,,,,,,,,,,,,,,,,,,,,,55.0,55.0,133.0,57.0,57.0,133.0,2.1,2.12,-152,-274,0,-270,191,278,128.3432972431183,128.34333848953247,128.34580063819885,128.3576090335846,128.5077543258667,128.5077543258667,128.5077543258667,128.5077543258667,128.5077543258667,128.5077543258667,128.5077543258667,144.4753978252411,3,16.10476326942444,None,,,,,,,,,,,,,,,,,,9,3,2025-02-13_11h54.31.546,comp,2024.2.5,60.06802633406802,2025-02-13 11h59.07.194939 -0500,
10,10,0,critical,dwh,60.0,4.0,lower,55.0,55.0,57.0,133.0,133.0,57.0,2,1.7661194801330566,None,,,,,0,0,0,0,0,10,10,70,144.49080872535706,,,,,,,,,,,,,,,,,,,,,,,,,,,,,,,,,,,,,,,,,,,,,,,,,,,,,,,,,,,,,,,,,,,,,,,,,,,,,,,,,55.0,55.0,57.0,133.0,133.0,57.0,4.0,4.2,-190,19,0,-289,191,2,144.4762260913849,144.4762668609619,144.47876024246216,144.49080872535706,144.64079451560974,144.64079451560974,144.64079451560974,144.64079451560974,144.64079451560974,144.64079451560974,144.64079451560974,146.27523732185364,2,1.7661194801330566,None,,,,,,,,,,,,,,,,,,9,3,2025-02-13_11h54.31.546,comp,2024.2.5,60.06802633406802,2025-02-13 11h59.07.194939 -0500,
11,11,0,critical,dhw,60.0,1.0,upper,100.0,100.0,200.0,125.0,125.0,200.0,3,3.6766040325164795,None,,,,,0,0,0,0,0,11,11,55,146.29069662094116,,,,,,,,,,,,,,,,,,,,,,,,,,,,,,,,,,,,,,,,,,,,,,,,,,,,,,,,,,,,,,,,,,,,,,,,,,,,,,,,,100.0,100.0,200.0,125.0,125.0,200.0,1.0,1.2,-208,10,0,-13,258,-16,146.27599501609802,146.2760350704193,146.27835512161255,146.29069662094116,146.44121026992798,146.44121026992798,146.44121026992798,146.44121026992798,146.44121026992798,146.44121026992798,146.44121026992798,149.9754445552826,3,3.6766040325164795,None,,,,,,,,,,,,,,,,,,9,3,2025-02-13_11h54.31.546,comp,2024.2.5,60.06802633406802,2025-02-13 11h59.07.194939 -0500,
12,12,0,filler_square,None,None,None,None,None,None,None,None,None,None,2,3.433576822280884,None,,,,,0,0,0,0,0,12,12,202,149.99093961715698,,,,,,,,,,,,,,,,,,,,,,,,,,,,,,,,,,,,,,,,,,,,,,,,,,,,,,,,,,,,,,,,,,,,,,,,,,,,,,,,,122.53392119765438,172.06721578433417,184.84772648770075,184.84772648770075,117.8757612422979,128.3603900421915,2.2,2.22,-274,269,0,-285,253,-267,149.9764368534088,149.97647881507874,149.97903871536255,149.99093961715698,150.14095497131348,150.14095497131348,150.14095497131348,150.14095497131348,150.14095497131348,150.14095497131348,150.14095497131348,153.442152261734,2,3.433576822280884,None,,,,,,,,,,,,,,,,,,9,3,2025-02-13_11h54.31.546,comp,2024.2.5,60.06802633406802,2025-02-13 11h59.07.194939 -0500,
13,13,0,catch,None,None,None,None,None,None,None,None,None,None,3,1.6849443912506104,None,,,,,0,0,0,0,0,13,13,123,153.4573893547058,,,,,,,,,,,,,,,,,,,,,,,,,,,,,,,,,,,,,,,,,,,,,,,,,,,,,,,,,,,,,,,,,,,,,,,,,,,,,,,,,110,80,58,132,170,155,1.0,1.2,-202,14,0,-6,240,6,153.4431974887848,153.44323897361755,153.4453992843628,153.4573893547058,153.6075222492218,153.6075222492218,153.6075222492218,153.6075222492218,153.6075222492218,153.6075222492218,153.6075222492218,155.15875577926636,3,1.6849443912506104,None,,,,,,,,,,,,,,,,,,9,3,2025-02-13_11h54.31.546,comp,2024.2.5,60.06802633406802,2025-02-13 11h59.07.194939 -0500,
14,14,0,filler_random,None,None,None,None,None,None,None,None,None,None,2,1.4721007347106934,None,,,,,0,0,0,0,0,14,14,156,155.17408871650696,,,,,,,,,,,,,,,,,,,,,,,,,,,,,,,,,,,,,,,,,,,,,,,,,,,,,,,,,,,,,,,,,,,,,,,,,,,,,,,,,126.58788515257874,72.78008332214827,189.0186571949561,184.82715911293525,154.68612828498988,147.43828751268663,1.0,1.3,255,-254,480,-287,742,-290,155.15971422195435,155.1597559452057,155.16235184669495,155.17408871650696,155.32421779632568,155.32421779632568,155.32421779632568,155.32421779632568,155.32421779632568,155.32421779632568,155.32421779632568,156.65884017944336,2,1.4721007347106934,None,,,,,,,,,,,,,,,,,,9,3,2025-02-13_11h54.31.546,comp,2024.2.5,60.06802633406802,2025-02-13 11h59.07.194939 -0500,
15,15,0,critical,wdh,45.0,2.1,lower,57.0,133.0,65.0,65.0,133.0,57.0,1,2.188201427459717,None,,,,,0,0,0,0,0,15,15,32,156.67408227920532,,,,,,,,,,,,,,,,,,,,,,,,,,,,,,,,,,,,,,,,,,,,,,,,,,,,,,,,,,,,,,,,,,,,,,,,,,,,,,,,,57.0,133.0,65.0,65.0,133.0,57.0,2.1,2.12,-195,-273,0,-277,157,261,156.65965151786804,156.65969347953796,156.66186594963074,156.67408227920532,156.82398557662964,156.82398557662964,156.82398557662964,156.82398557662964,156.82398557662964,156.82398557662964,156.82398557662964,158.87524104118347,1,2.188201427459717,None,,,,,,,,,,,,,,,,,,9,3,2025-02-13_11h54.31.546,comp,2024.2.5,60.06802633406802,2025-02-13 11h59.07.194939 -0500,
16,16,0,critical,wdh,60.0,1.0,lower,57.0,133.0,55.0,55.0,133.0,57.0,1,5.58223819732666,None,,,,,0,0,0,0,0,16,16,78,158.89052176475525,,,,,,,,,,,,,,,,,,,,,,,,,,,,,,,,,,,,,,,,,,,,,,,,,,,,,,,,,,,,,,,,,,,,,,,,,,,,,,,,,57.0,133.0,55.0,55.0,133.0,57.0,1.0,1.2,-190,16,0,4,152,11,158.87599229812622,158.87603116035461,158.87840628623962,158.89052176475525,159.04075503349304,159.04075503349304,159.04075503349304,159.04075503349304,159.04075503349304,159.04075503349304,159.04075503349304,164.47527718544006,1,5.58223819732666,None,,,,,,,,,,,,,,,,,,9,3,2025-02-13_11h54.31.546,comp,2024.2.5,60.06802633406802,2025-02-13 11h59.07.194939 -0500,
17,17,0,critical,wdh,45.0,2.1,lower,57.0,133.0,65.0,65.0,133.0,57.0,1,2.300189733505249,None,,,,,0,0,0,0,0,17,17,8,164.49084782600403,,,,,,,,,,,,,,,,,,,,,,,,,,,,,,,,,,,,,,,,,,,,,,,,,,,,,,,,,,,,,,,,,,,,,,,,,,,,,,,,,57.0,133.0,65.0,65.0,133.0,57.0,2.1,2.11,-195,253,0,267,157,-265,164.4764313697815,164.47647428512573,164.47863960266113,164.49084782600403,164.64068388938904,164.64068388938904,164.64068388938904,164.64068388938904,164.64068388938904,164.64068388938904,164.64068388938904,166.80843901634216,1,2.300189733505249,None,,,,,,,,,,,,,,,,,,9,3,2025-02-13_11h54.31.546,comp,2024.2.5,60.06802633406802,2025-02-13 11h59.07.194939 -0500,
18,18,0,critical,wdh,60.0,2.1,lower,57.0,133.0,55.0,55.0,133.0,57.0,1,2.022113084793091,None,,,,,0,0,0,0,0,18,18,10,166.82397317886353,,,,,,,,,,,,,,,,,,,,,,,,,,,,,,,,,,,,,,,,,,,,,,,,,,,,,,,,,,,,,,,,,,,,,,,,,,,,,,,,,57.0,133.0,55.0,55.0,133.0,57.0,2.1,2.11,-190,259,0,277,152,-284,166.80928897857666,166.8093297481537,166.81186747550964,166.82397317886353,166.97410082817078,166.97410082817078,166.97410082817078,166.97410082817078,166.97410082817078,166.97410082817078,166.97410082817078,168.8585662841797,1,2.022113084793091,None,,,,,,,,,,,,,,,,,,9,3,2025-02-13_11h54.31.546,comp,2024.2.5,60.06802633406802,2025-02-13 11h59.07.194939 -0500,
19,19,0,critical,whd,60.0,1.0,lower,57.0,133.0,133.0,57.0,55.0,55.0,2,5.2202537059783936,None,,,,,0,0,0,0,0,19,19,90,168.8739583492279,,,,,,,,,,,,,,,,,,,,,,,,,,,,,,,,,,,,,,,,,,,,,,,,,,,,,,,,,,,,,,,,,,,,,,,,,,,,,,,,,57.0,133.0,133.0,57.0,55.0,55.0,1.0,1.3,289,-252,480,-266,632,-275,168.85937094688416,168.85941290855408,168.86192655563354,168.8739583492279,169.02399826049805,169.02399826049805,169.02399826049805,169.02399826049805,169.02399826049805,169.02399826049805,169.02399826049805,174.10835242271423,2,5.2202537059783936,None,,,,,,,,,,,,,,,,,,9,3,2025-02-13_11h54.31.546,comp,2024.2.5,60.06802633406802,2025-02-13 11h59.07.194939 -0500,
20,20,0,critical,whd,45.0,1.0,lower,57.0,133.0,133.0,57.0,65.0,65.0,1,1.418313980102539,None,,,,,0,0,0,0,0,20,20,84,174.12380814552307,,,,,,,,,,,,,,,,,,,,,,,,,,,,,,,,,,,,,,,,,,,,,,,,,,,,,,,,,,,,,,,,,,,,,,,,,,,,,,,,,57.0,133.0,133.0,57.0,65.0,65.0,1.0,1.2,-191,-2,0,11,157,-1,174.10918998718262,174.10923147201538,174.111741065979,174.12380814552307,174.2739953994751,174.2739953994751,174.2739953994751,174.2739953994751,174.2739953994751,174.2739953994751,174.2739953994751,175.55840730667114,1,1.418313980102539,None,,,,,,,,,,,,,,,,,,9,3,2025-02-13_11h54.31.546,comp,2024.2.5,60.06802633406802,2025-02-13 11h59.07.194939 -0500,
21,21,0,critical,hwd,60.0,2.1,lower,133.0,57.0,57.0,133.0,55.0,55.0,2,1.4252550601959229,None,,,,,0,0,0,0,0,21,21,18,175.57386803627014,,,,,,,,,,,,,,,,,,,,,,,,,,,,,,,,,,,,,,,,,,,,,,,,,,,,,,,,,,,,,,,,,,,,,,,,,,,,,,,,,133.0,57.0,57.0,133.0,55.0,55.0,2.1,2.11,-191,279,0,253,190,-259,175.5592212677002,175.5592622756958,175.56174755096436,175.57386803627014,175.72398042678833,175.72398042678833,175.72398042678833,175.72398042678833,175.72398042678833,175.72398042678833,175.72398042678833,177.00860786437988,2,1.4252550601959229,None,,,,,,,,,,,,,,,,,,9,3,2025-02-13_11h54.31.546,comp,2024.2.5,60.06802633406802,2025-02-13 11h59.07.194939 -0500,
22,22,0,critical,hdw,60.0,2.1,upper,200.0,125.0,100.0,100.0,125.0,200.0,3,2.005923271179199,None,,,,,0,0,0,0,0,22,22,23,177.02414417266846,,,,,,,,,,,,,,,,,,,,,,,,,,,,,,,,,,,,,,,,,,,,,,,,,,,,,,,,,,,,,,,,,,,,,,,,,,,,,,,,,200.0,125.0,100.0,100.0,125.0,200.0,2.1,2.12,-208,-255,0,-263,246,251,177.00942468643188,177.00946354866028,177.01206922531128,177.02414417266846,177.17418599128723,177.17418599128723,177.17418599128723,177.17418599128723,177.17418599128723,177.17418599128723,177.17418599128723,179.04214549064636,3,2.005923271179199,None,,,,,,,,,,,,,,,,,,9,3,2025-02-13_11h54.31.546,comp,2024.2.5,60.06802633406802,2025-02-13 11h59.07.194939 -0500,
23,23,0,critical,hdw,60.0,2.1,lower,133.0,57.0,55.0,55.0,57.0,133.0,3,2.5258872509002686,None,,,,,0,0,0,0,0,23,23,46,179.0570945739746,,,,,,,,,,,,,,,,,,,,,,,,,,,,,,,,,,,,,,,,,,,,,,,,,,,,,,,,,,,,,,,,,,,,,,,,,,,,,,,,,133.0,57.0,55.0,55.0,57.0,133.0,2.1,2.11,-152,280,0,275,190,-273,179.04297184944153,179.0430121421814,179.04540252685547,179.0570945739746,179.20748376846313,179.20748376846313,179.20748376846313,179.20748376846313,179.20748376846313,179.20748376846313,179.20748376846313,181.59170651435852,3,2.5258872509002686,None,,,,,,,,,,,,,,,,,,9,3,2025-02-13_11h54.31.546,comp,2024.2.5,60.06802633406802,2025-02-13 11h59.07.194939 -0500,
24,24,0,filler_square,None,None,None,None,None,None,None,None,None,None,2,1.151843786239624,None,,,,,0,0,0,0,0,24,24,174,181.6073398590088,,,,,,,,,,,,,,,,,,,,,,,,,,,,,,,,,,,,,,,,,,,,,,,,,,,,,,,,,,,,,,,,,,,,,,,,,,,,,,,,,174.51883207594824,96.37575462965441,179.71032631346623,179.71032631346623,111.32710658697721,119.39788452456284,3.0,3.1,-234,256,0,-18,246,-263,181.59266424179077,181.59270548820496,181.5952706336975,181.6073398590088,181.75752425193787,181.75752425193787,181.75752425193787,181.75752425193787,181.75752425193787,181.75752425193787,181.75752425193787,182.7755742073059,2,1.151843786239624,None,,,,,,,,,,,,,,,,,,9,3,2025-02-13_11h54.31.546,comp,2024.2.5,60.06802633406802,2025-02-13 11h59.07.194939 -0500,
25,25,0,critical,hdw,60.0,4.0,lower,133.0,57.0,55.0,55.0,57.0,133.0,3,2.127997398376465,None,,,,,0,0,0,0,0,25,25,118,182.79089331626892,,,,,,,,,,,,,,,,,,,,,,,,,,,,,,,,,,,,,,,,,,,,,,,,,,,,,,,,,,,,,,,,,,,,,,,,,,,,,,,,,133.0,57.0,55.0,55.0,57.0,133.0,4.0,4.2,-152,12,0,-260,190,8,182.7763795852661,182.77642059326172,182.7798855304718,182.79089331626892,182.95718502998352,182.95718502998352,182.95718502998352,182.95718502998352,182.95718502998352,182.95718502998352,182.95718502998352,184.9249324798584,3,2.127997398376465,None,,,,,,,,,,,,,,,,,,9,3,2025-02-13_11h54.31.546,comp,2024.2.5,60.06802633406802,2025-02-13 11h59.07.194939 -0500,
26,26,0,filler_random,None,None,None,None,None,None,None,None,None,None,1,1.3699731826782227,None,,,,,0,0,0,0,0,26,26,131,184.94057893753052,,,,,,,,,,,,,,,,,,,,,,,,,,,,,,,,,,,,,,,,,,,,,,,,,,,,,,,,,,,,,,,,,,,,,,,,,,,,,,,,,159.85718874355166,185.20494916642528,195.0688885055015,105.79413828297899,95.33753604262533,163.00609377592895,2.1,2.12,-241,-262,0,-279,230,280,184.92583084106445,184.92587184906006,184.9286072254181,184.94057893753052,185.09078288078308,185.09078288078308,185.09078288078308,185.09078288078308,185.09078288078308,185.09078288078308,185.09078288078308,186.32527613639832,1,1.3699731826782227,None,,,,,,,,,,,,,,,,,,9,3,2025-02-13_11h54.31.546,comp,2024.2.5,60.06802633406802,2025-02-13 11h59.07.194939 -0500,
27,27,0,critical,whd,45.0,3.0,lower,57.0,133.0,133.0,57.0,65.0,65.0,2,1.6587140560150146,None,,,,,0,0,0,0,0,27,27,86,186.34041333198547,,,,,,,,,,,,,,,,,,,,,,,,,,,,,,,,,,,,,,,,,,,,,,,,,,,,,,,,,,,,,,,,,,,,,,,,,,,,,,,,,57.0,133.0,133.0,57.0,65.0,65.0,3.0,3.2,-191,-261,0,-7,157,281,186.32611536979675,186.32615780830383,186.32835578918457,186.34041333198547,186.49084210395813,186.49084210395813,186.49084210395813,186.49084210395813,186.49084210395813,186.49084210395813,186.49084210395813,188.00835728645325,2,1.6587140560150146,None,,,,,,,,,,,,,,,,,,9,3,2025-02-13_11h54.31.546,comp,2024.2.5,60.06802633406802,2025-02-13 11h59.07.194939 -0500,
28,28,0,catch,None,None,None,None,None,None,None,None,None,None,2,1.1109955310821533,None,,,,,0,0,0,0,0,28,28,122,188.02392721176147,,,,,,,,,,,,,,,,,,,,,,,,,,,,,,,,,,,,,,,,,,,,,,,,,,,,,,,,,,,,,,,,,,,,,,,,,,,,,,,,,124,66,126,199,72,118,2.1,2.12,-228,-256,0,-273,254,286,188.0094006061554,188.00944089889526,188.01155471801758,188.02392721176147,188.17382788658142,188.17382788658142,188.17382788658142,188.17382788658142,188.17382788658142,188.17382788658142,188.17382788658142,189.14172530174255,2,1.1109955310821533,None,,,,,,,,,,,,,,,,,,9,3,2025-02-13_11h54.31.546,comp,2024.2.5,60.06802633406802,2025-02-13 11h59.07.194939 -0500,
29,29,0,critical,hdw,60.0,3.0,upper,200.0,125.0,100.0,100.0,125.0,200.0,3,1.6418557167053223,None,,,,,0,0,0,0,0,29,29,117,189.15727066993713,,,,,,,,,,,,,,,,,,,,,,,,,,,,,,,,,,,,,,,,,,,,,,,,,,,,,,,,,,,,,,,,,,,,,,,,,,,,,,,,,200.0,125.0,100.0,100.0,125.0,200.0,3.0,3.2,-208,-268,0,-7,246,280,189.1425337791443,189.1425757408142,189.1451063156128,189.15727066993713,189.30733847618103,189.30733847618103,189.30733847618103,189.30733847618103,189.30733847618103,189.30733847618103,189.30733847618103,190.8085057735443,3,1.6418557167053223,None,,,,,,,,,,,,,,,,,,9,3,2025-02-13_11h54.31.546,comp,2024.2.5,60.06802633406802,2025-02-13 11h59.07.194939 -0500,
30,30,0,critical,hdw,45.0,3.0,lower,133.0,57.0,65.0,65.0,57.0,133.0,3,2.2702035903930664,None,,,,,0,0,0,0,0,30,30,110,190.82396054267883,,,,,,,,,,,,,,,,,,,,,,,,,,,,,,,,,,,,,,,,,,,,,,,,,,,,,,,,,,,,,,,,,,,,,,,,,,,,,,,,,133.0,57.0,65.0,65.0,57.0,133.0,3.0,3.1,-157,287,0,-14,195,-273,190.80932426452637,190.80936694145203,190.81190490722656,190.82396054267883,190.97377514839172,190.97377514839172,190.97377514839172,190.97377514839172,190.97377514839172,190.97377514839172,190.97377514839172,193.10823893547058,3,2.2702035903930664,None,,,,,,,,,,,,,,,,,,9,3,2025-02-13_11h54.31.546,comp,2024.2.5,60.06802633406802,2025-02-13 11h59.07.194939 -0500,
31,31,0,critical,dhw,60.0,1.0,lower,55.0,55.0,133.0,57.0,57.0,133.0,2,3.770448684692383,None,,,,,0,0,0,0,0,31,31,54,193.12361097335815,,,,,,,,,,,,,,,,,,,,,,,,,,,,,,,,,,,,,,,,,,,,,,,,,,,,,,,,,,,,,,,,,,,,,,,,,,,,,,,,,55.0,55.0,133.0,57.0,57.0,133.0,1.0,1.2,-152,-9,0,-4,191,-19,193.10906147956848,193.10910439491272,193.111665725708,193.12361097335815,193.27377653121948,193.27377653121948,193.27377653121948,193.27377653121948,193.27377653121948,193.27377653121948,193.27377653121948,196.90821480751038,2,3.770448684692383,None,,,,,,,,,,,,,,,,,,9,3,2025-02-13_11h54.31.546,comp,2024.2.5,60.06802633406802,2025-02-13 11h59.07.194939 -0500,
32,32,0,filler_random,None,None,None,None,None,None,None,None,None,None,1,1.1003272533416748,None,,,,,0,0,0,0,0,32,32,144,196.92364072799683,,,,,,,,,,,,,,,,,,,,,,,,,,,,,,,,,,,,,,,,,,,,,,,,,,,,,,,,,,,,,,,,,,,,,,,,,,,,,,,,,193.1636767116384,101.30018879444046,91.015229473191,75.11266034788068,181.74806838655374,77.7590342107988,2.2,2.22,-184,265,0,-289,172,-277,196.9091558456421,196.90919613838196,196.91163563728333,196.92364072799683,197.0738968849182,197.0738968849182,197.0738968849182,197.0738968849182,197.0738968849182,197.0738968849182,197.0738968849182,198.02532267570496,1,1.1003272533416748,None,,,,,,,,,,,,,,,,,,9,3,2025-02-13_11h54.31.546,comp,2024.2.5,60.06802633406802,2025-02-13 11h59.07.194939 -0500,
33,33,0,filler_square,None,None,None,None,None,None,None,None,None,None,3,4.9338765144348145,None,,,,,0,0,0,0,0,33,33,201,198.04044651985168,,,,,,,,,,,,,,,,,,,,,,,,,,,,,,,,,,,,,,,,,,,,,,,,,,,,,,,,,,,,,,,,,,,,,,,,,,,,,,,,,57.023400734104065,58.62898653752886,58.729047197288544,58.729047197288544,57.80793790742091,58.60641031110917,3.0,3.1,-155,284,0,14,155,-277,198.0262954235077,198.02635145187378,198.02895641326904,198.04044651985168,198.19032835960388,198.19032835960388,198.19032835960388,198.19032835960388,198.19032835960388,198.19032835960388,198.19032835960388,202.99145460128784,3,4.9338765144348145,None,,,,,,,,,,,,,,,,,,9,3,2025-02-13_11h54.31.546,comp,2024.2.5,60.06802633406802,2025-02-13 11h59.07.194939 -0500,
34,34,0,critical,dwh,60.0,3.0,lower,55.0,55.0,57.0,133.0,133.0,57.0,2,1.911832332611084,None,,,,,0,0,0,0,0,34,34,68,203.0071542263031,,,,,,,,,,,,,,,,,,,,,,,,,,,,,,,,,,,,,,,,,,,,,,,,,,,,,,,,,,,,,,,,,,,,,,,,,,,,,,,,,55.0,55.0,57.0,133.0,133.0,57.0,3.0,3.1,-190,274,0,-6,191,-276,202.99225902557373,202.99229979515076,202.99490404129028,203.0071542263031,203.15707635879517,203.15707635879517,203.15707635879517,203.15707635879517,203.15707635879517,203.15707635879517,203.15707635879517,204.92492771148682,2,1.911832332611084,None,,,,,,,,,,,,,,,,,,9,3,2025-02-13_11h54.31.546,comp,2024.2.5,60.06802633406802,2025-02-13 11h59.07.194939 -0500,
35,35,0,critical,dwh,60.0,3.0,upper,100.0,100.0,125.0,200.0,200.0,125.0,2,1.5380020141601562,None,,,,,0,0,0,0,0,35,35,69,204.94035410881042,,,,,,,,,,,,,,,,,,,,,,,,,,,,,,,,,,,,,,,,,,,,,,,,,,,,,,,,,,,,,,,,,,,,,,,,,,,,,,,,,100.0,100.0,125.0,200.0,200.0,125.0,3.0,3.2,-246,-256,0,-7,258,273,204.9257185459137,204.92575883865356,204.92797684669495,204.94035410881042,205.0904405117035,205.0904405117035,205.0904405117035,205.0904405117035,205.0904405117035,205.0904405117035,205.0904405117035,206.4915554523468,2,1.5380020141601562,None,,,,,,,,,,,,,,,,,,9,3,2025-02-13_11h54.31.546,comp,2024.2.5,60.06802633406802,2025-02-13 11h59.07.194939 -0500,
36,36,0,critical,wdh,60.0,4.0,upper,125.0,200.0,100.0,100.0,200.0,125.0,1,2.8349156379699707,None,,,,,0,0,0,0,0,36,36,83,206.50691175460815,,,,,,,,,,,,,,,,,,,,,,,,,,,,,,,,,,,,,,,,,,,,,,,,,,,,,,,,,,,,,,,,,,,,,,,,,,,,,,,,,125.0,200.0,100.0,100.0,200.0,125.0,4.0,4.1,-246,-273,0,-12,208,-256,206.49243140220642,206.49247336387634,206.49527668952942,206.50691175460815,206.65710711479187,206.65710711479187,206.65710711479187,206.65710711479187,206.65710711479187,206.65710711479187,206.65710711479187,209.3586449623108,1,2.8349156379699707,None,,,,,,,,,,,,,,,,,,9,3,2025-02-13_11h54.31.546,comp,2024.2.5,60.06802633406802,2025-02-13 11h59.07.194939 -0500,
37,37,0,critical,dwh,45.0,2.1,upper,117.0,117.0,125.0,200.0,200.0,125.0,2,2.9772188663482666,None,,,,,0,0,0,0,0,37,37,29,209.3736023902893,,,,,,,,,,,,,,,,,,,,,,,,,,,,,,,,,,,,,,,,,,,,,,,,,,,,,,,,,,,,,,,,,,,,,,,,,,,,,,,,,117.0,117.0,125.0,200.0,200.0,125.0,2.1,2.12,-254,-289,0,-283,258,277,209.35961246490479,209.35965657234192,209.36179733276367,209.3736023902893,209.52387118339539,209.52387118339539,209.52387118339539,209.52387118339539,209.52387118339539,209.52387118339539,209.52387118339539,212.35840010643005,2,2.9772188663482666,None,,,,,,,,,,,,,,,,,,9,3,2025-02-13_11h54.31.546,comp,2024.2.5,60.06802633406802,2025-02-13 11h59.07.194939 -0500,
38,38,0,critical,dhw,45.0,2.1,lower,65.0,65.0,133.0,57.0,57.0,133.0,3,2.304507255554199,None,,,,,0,0,0,0,0,38,38,0,212.37385606765747,,,,,,,,,,,,,,,,,,,,,,,,,,,,,,,,,,,,,,,,,,,,,,,,,,,,,,,,,,,,,,,,,,,,,,,,,,,,,,,,,65.0,65.0,133.0,57.0,57.0,133.0,2.1,2.11,-157,252,0,271,191,-279,212.3592188358307,212.35926222801208,212.3618986606598,212.37385606765747,212.52364921569824,212.52364921569824,212.52364921569824,212.52364921569824,212.52364921569824,212.52364921569824,212.52364921569824,214.69152164459229,3,2.304507255554199,None,,,,,,,,,,,,,,,,,,9,3,2025-02-13_11h54.31.546,comp,2024.2.5,60.06802633406802,2025-02-13 11h59.07.194939 -0500,
39,39,0,critical,hdw,60.0,1.0,upper,200.0,125.0,100.0,100.0,125.0,200.0,3,2.2758114337921143,None,,,,,0,0,0,0,0,39,39,115,214.70683407783508,,,,,,,,,,,,,,,,,,,,,,,,,,,,,,,,,,,,,,,,,,,,,,,,,,,,,,,,,,,,,,,,,,,,,,,,,,,,,,,,,200.0,125.0,100.0,100.0,125.0,200.0,1.0,1.3,272,-270,480,-277,726,-253,214.69237637519836,214.6924171447754,214.69493460655212,214.70683407783508,214.85707807540894,214.85707807540894,214.85707807540894,214.85707807540894,214.85707807540894,214.85707807540894,214.85707807540894,216.9915177822113,3,2.2758114337921143,None,,,,,,,,,,,,,,,,,,9,3,2025-02-13_11h54.31.546,comp,2024.2.5,60.06802633406802,2025-02-13 11h59.07.194939 -0500,
40,40,0,critical,wdh,45.0,2.1,upper,125.0,200.0,117.0,117.0,200.0,125.0,1,2.280090570449829,None,,,,,0,0,0,0,0,40,40,9,217.00709223747253,,,,,,,,,,,,,,,,,,,,,,,,,,,,,,,,,,,,,,,,,,,,,,,,,,,,,,,,,,,,,,,,,,,,,,,,,,,,,,,,,125.0,200.0,117.0,117.0,200.0,125.0,2.1,2.12,-254,-288,0,-272,217,284,216.9923095703125,216.99235081672668,216.99449253082275,217.00709223747253,217.15703082084656,217.15703082084656,217.15703082084656,217.15703082084656,217.15703082084656,217.15703082084656,217.15703082084656,219.29167413711548,1,2.280090570449829,None,,,,,,,,,,,,,,,,,,9,3,2025-02-13_11h54.31.546,comp,2024.2.5,60.06802633406802,2025-02-13 11h59.07.194939 -0500,
41,41,0,critical,hdw,60.0,3.0,lower,133.0,57.0,55.0,55.0,57.0,133.0,3,2.116722345352173,None,,,,,0,0,0,0,0,41,41,116,219.30698204040527,,,,,,,,,,,,,,,,,,,,,,,,,,,,,,,,,,,,,,,,,,,,,,,,,,,,,,,,,,,,,,,,,,,,,,,,,,,,,,,,,133.0,57.0,55.0,55.0,57.0,133.0,3.0,3.1,-152,278,0,1,190,-261,219.29248881340027,219.2925317287445,219.2947142124176,219.30698204040527,219.4571135044098,219.4571135044098,219.4571135044098,219.4571135044098,219.4571135044098,219.4571135044098,219.4571135044098,221.4414312839508,3,2.116722345352173,None,,,,,,,,,,,,,,,,,,9,3,2025-02-13_11h54.31.546,comp,2024.2.5,60.06802633406802,2025-02-13 11h59.07.194939 -0500,
42,42,0,filler_square,None,None,None,None,None,None,None,None,None,None,1,1.2154483795166016,None,,,,,0,0,0,0,0,42,42,180,221.45681357383728,,,,,,,,,,,,,,,,,,,,,,,,,,,,,,,,,,,,,,,,,,,,,,,,,,,,,,,,,,,,,,,,,,,,,,,,,,,,,,,,,144.43212883524103,144.43212883524103,76.31281186951219,80.15057514123333,128.8558452600713,59.13142649765069,4.0,4.1,-208,-270,0,16,166,-269,221.44239354133606,221.4424340724945,221.44492530822754,221.45681357383728,221.60697102546692,221.60697102546692,221.60697102546692,221.60697102546692,221.60697102546692,221.60697102546692,221.60697102546692,222.67484617233276,1,1.2154483795166016,None,,,,,,,,,,,,,,,,,,9,3,2025-02-13_11h54.31.546,comp,2024.2.5,60.06802633406802,2025-02-13 11h59.07.194939 -0500,
43,43,0,filler_random,None,None,None,None,None,None,None,None,None,None,1,1.628453016281128,None,,,,,0,0,0,0,0,43,43,130,222.69018650054932,,,,,,,,,,,,,,,,,,,,,,,,,,,,,,,,,,,,,,,,,,,,,,,,,,,,,,,,,,,,,,,,,,,,,,,,,,,,,,,,,180.14957977449654,178.04985056049725,185.32411156785304,119.7458307191772,164.25597062198779,126.23759439462866,1.0,1.3,235,-281,480,-267,699,-282,222.67575120925903,222.6757936477661,222.67839670181274,222.69018650054932,222.8404881954193,222.8404881954193,222.8404881954193,222.8404881954193,222.8404881954193,222.8404881954193,222.8404881954193,224.32506680488586,1,1.628453016281128,None,,,,,,,,,,,,,,,,,,9,3,2025-02-13_11h54.31.546,comp,2024.2.5,60.06802633406802,2025-02-13 11h59.07.194939 -0500,
44,44,0,critical,dwh,60.0,4.0,upper,100.0,100.0,125.0,200.0,200.0,125.0,2,1.9159283638000488,None,,,,,0,0,0,0,0,44,44,71,224.34032773971558,,,,,,,,,,,,,,,,,,,,,,,,,,,,,,,,,,,,,,,,,,,,,,,,,,,,,,,,,,,,,,,,,,,,,,,,,,,,,,,,,100.0,100.0,125.0,200.0,200.0,125.0,4.0,4.2,-246,-16,0,-269,258,-5,224.32584404945374,224.3258855342865,224.32853937149048,224.34032773971558,224.49045157432556,224.49045157432556,224.49045157432556,224.49045157432556,224.49045157432556,224.49045157432556,224.49045157432556,226.25854539871216,2,1.9159283638000488,None,,,,,,,,,,,,,,,,,,9,3,2025-02-13_11h54.31.546,comp,2024.2.5,60.06802633406802,2025-02-13 11h59.07.194939 -0500,
45,45,0,filler_square,None,None,None,None,None,None,None,None,None,None,2,0.9823822975158691,None,,,,,0,0,0,0,0,45,45,188,226.27369260787964,,,,,,,,,,,,,,,,,,,,,,,,,,,,,,,,,,,,,,,,,,,,,,,,,,,,,,,,,,,,,,,,,,,,,,,,,,,,,,,,,151.20280778839356,100.49805310824165,164.90103381499432,164.90103381499432,147.63969500158032,140.66680869653766,3.0,3.1,-229,279,0,14,249,-267,226.25953078269958,226.25957202911377,226.26170873641968,226.27369260787964,226.4238064289093,226.4238064289093,226.4238064289093,226.4238064289093,226.4238064289093,226.4238064289093,226.4238064289093,227.25850296020508,2,0.9823822975158691,None,,,,,,,,,,,,,,,,,,9,3,2025-02-13_11h54.31.546,comp,2024.2.5,60.06802633406802,2025-02-13 11h59.07.194939 -0500,
46,46,0,filler_random,None,None,None,None,None,None,None,None,None,None,1,1.2840721607208252,None,,,,,0,0,0,0,0,46,46,151,227.2736155986786,,,,,,,,,,,,,,,,,,,,,,,,,,,,,,,,,,,,,,,,,,,,,,,,,,,,,,,,,,,,,,,,,,,,,,,,,,,,,,,,,193.15153142099734,177.38251115874866,121.13815557666643,153.18879584608686,137.83945983176724,140.13291338679807,1.0,1.1,-741,275,-480,266,-237,276,227.25940084457397,227.25944256782532,227.2615828514099,227.2736155986786,227.42369627952576,227.42369627952576,227.42369627952576,227.42369627952576,227.42369627952576,227.42369627952576,227.42369627952576,228.57478952407837,1,1.2840721607208252,None,,,,,,,,,,,,,,,,,,9,3,2025-02-13_11h54.31.546,comp,2024.2.5,60.06802633406802,2025-02-13 11h59.07.194939 -0500,
47,47,0,critical,hdw,60.0,2.1,lower,133.0,57.0,55.0,55.0,57.0,133.0,1,3.319704055786133,None,,,,,0,0,0,0,0,47,47,22,228.59001350402832,,,,,,,,,,,,,,,,,,,,,,,,,,,,,,,,,,,,,,,,,,,,,,,,,,,,,,,,,,,,,,,,,,,,,,,,,,,,,,,,,133.0,57.0,55.0,55.0,57.0,133.0,2.1,2.11,-152,253,0,281,190,-279,228.57560992240906,228.57565093040466,228.57788467407227,228.59001350402832,228.74021339416504,228.74021339416504,228.74021339416504,228.74021339416504,228.74021339416504,228.74021339416504,228.74021339416504,231.92485404014587,1,3.319704055786133,None,,,,,,,,,,,,,,,,,,9,3,2025-02-13_11h54.31.546,comp,2024.2.5,60.06802633406802,2025-02-13 11h59.07.194939 -0500,
48,48,0,filler_square,None,None,None,None,None,None,None,None,None,None,2,1.7857680320739746,None,,,,,0,0,0,0,0,48,48,185,231.93998456001282,,,,,,,,,,,,,,,,,,,,,,,,,,,,,,,,,,,,,,,,,,,,,,,,,,,,,,,,,,,,,,,,,,,,,,,,,,,,,,,,,141.6861085007867,124.09125192556942,154.12915404997926,154.12915404997926,119.84940869373827,136.58150066018652,2.1,2.12,-235,-269,0,-270,241,289,231.9258360862732,231.92587566375732,231.92842531204224,231.93998456001282,232.0901961326599,232.0901961326599,232.0901961326599,232.0901961326599,232.0901961326599,232.0901961326599,232.0901961326599,233.74129009246826,2,1.7857680320739746,None,,,,,,,,,,,,,,,,,,9,3,2025-02-13_11h54.31.546,comp,2024.2.5,60.06802633406802,2025-02-13 11h59.07.194939 -0500,
49,49,0,critical,dhw,45.0,2.1,upper,117.0,117.0,200.0,125.0,125.0,200.0,3,1.7049212455749512,None,,,,,0,0,0,0,0,49,49,25,233.75651144981384,,,,,,,,,,,,,,,,,,,,,,,,,,,,,,,,,,,,,,,,,,,,,,,,,,,,,,,,,,,,,,,,,,,,,,,,,,,,,,,,,117.0,117.0,200.0,125.0,125.0,200.0,2.1,2.11,-217,261,0,258,258,-281,233.74208235740662,233.74212455749512,233.74463272094727,233.75651144981384,233.90701508522034,233.90701508522034,233.90701508522034,233.90701508522034,233.90701508522034,233.90701508522034,233.90701508522034,235.47474813461304,3,1.7049212455749512,None,,,,,,,,,,,,,,,,,,9,3,2025-02-13_11h54.31.546,comp,2024.2.5,60.06802633406802,2025-02-13 11h59.07.194939 -0500,
50,50,0,critical,dwh,45.0,1.0,upper,117.0,117.0,125.0,200.0,200.0,125.0,2,2.1171886920928955,None,,,,,0,0,0,0,0,50,50,61,235.4899444580078,,,,,,,,,,,,,,,,,,,,,,,,,,,,,,,,,,,,,,,,,,,,,,,,,,,,,,,,,,,,,,,,,,,,,,,,,,,,,,,,,117.0,117.0,125.0,200.0,200.0,125.0,1.0,1.1,-734,277,-480,258,-222,256,235.47554993629456,235.47559070587158,235.47812581062317,235.4899444580078,235.64024353027344,235.64024353027344,235.64024353027344,235.64024353027344,235.64024353027344,235.64024353027344,235.64024353027344,237.60837411880493,2,2.1171886920928955,None,,,,,,,,,,,,,,,,,,9,3,2025-02-13_11h54.31.546,comp,2024.2.5,60.06802633406802,2025-02-13 11h59.07.194939 -0500,
51,51,0,catch,None,None,None,None,None,None,None,None,None,None,2,0.9748780727386475,None,,,,,0,0,0,0,0,51,51,129,237.62357187271118,,,,,,,,,,,,,,,,,,,,,,,,,,,,,,,,,,,,,,,,,,,,,,,,,,,,,,,,,,,,,,,,,,,,,,,,,,,,,,,,,114,76,166,159,58,132,1.0,1.3,266,-271,480,-276,722,-275,237.60943007469177,237.6094708442688,237.61182928085327,237.62357187271118,237.7734673023224,237.7734673023224,237.7734673023224,237.7734673023224,237.7734673023224,237.7734673023224,237.7734673023224,238.60783505439758,2,0.9748780727386475,None,,,,,,,,,,,,,,,,,,9,3,2025-02-13_11h54.31.546,comp,2024.2.5,60.06802633406802,2025-02-13 11h59.07.194939 -0500,
52,52,0,critical,dwh,60.0,2.1,lower,55.0,55.0,57.0,133.0,133.0,57.0,2,16.52698302268982,None,,,,,0,0,0,0,0,52,52,30,238.62351942062378,,,,,,,,,,,,,,,,,,,,,,,,,,,,,,,,,,,,,,,,,,,,,,,,,,,,,,,,,,,,,,,,,,,,,,,,,,,,,,,,,55.0,55.0,57.0,133.0,133.0,57.0,2.1,2.12,-190,-272,0,-252,191,288,238.6087827682495,238.6088252067566,238.61154055595398,238.62351942062378,238.77342319488525,238.77342319488525,238.77342319488525,238.77342319488525,238.77342319488525,238.77342319488525,238.77342319488525,255.15776824951172,2,16.52698302268982,None,,,,,,,,,,,,,,,,,,9,3,2025-02-13_11h54.31.546,comp,2024.2.5,60.06802633406802,2025-02-13 11h59.07.194939 -0500,
53,53,0,critical,whd,45.0,2.1,lower,57.0,133.0,133.0,57.0,65.0,65.0,2,1.193286418914795,None,,,,,0,0,0,0,0,53,53,12,255.17334938049316,,,,,,,,,,,,,,,,,,,,,,,,,,,,,,,,,,,,,,,,,,,,,,,,,,,,,,,,,,,,,,,,,,,,,,,,,,,,,,,,,57.0,133.0,133.0,57.0,65.0,65.0,2.1,2.11,-191,286,0,261,157,-254,255.15859985351562,255.15864205360413,255.16146779060364,255.17334938049316,255.32312154769897,255.32312154769897,255.32312154769897,255.32312154769897,255.32312154769897,255.32312154769897,255.32312154769897,256.37451791763306,2,1.193286418914795,None,,,,,,,,,,,,,,,,,,9,3,2025-02-13_11h54.31.546,comp,2024.2.5,60.06802633406802,2025-02-13 11h59.07.194939 -0500,
54,54,0,filler_square,None,None,None,None,None,None,None,None,None,None,2,0.9834129810333252,None,,,,,0,0,0,0,0,54,54,183,256.3904163837433,,,,,,,,,,,,,,,,,,,,,,,,,,,,,,,,,,,,,,,,,,,,,,,,,,,,,,,,,,,,,,,,,,,,,,,,,,,,,,,,,123.8380530827697,122.69458170735457,135.65534629674272,135.65534629674272,101.79588293096299,90.85266995413892,4.0,4.1,-225,-260,0,-12,209,-272,256.3754963874817,256.3755395412445,256.3777086734772,256.3904163837433,256.5400047302246,256.5400047302246,256.5400047302246,256.5400047302246,256.5400047302246,256.5400047302246,256.5400047302246,257.3910903930664,2,0.9834129810333252,None,,,,,,,,,,,,,,,,,,9,3,2025-02-13_11h54.31.546,comp,2024.2.5,60.06802633406802,2025-02-13 11h59.07.194939 -0500,
55,55,0,critical,whd,45.0,2.1,upper,125.0,200.0,200.0,125.0,117.0,117.0,1,1.767512559890747,None,,,,,0,0,0,0,0,55,55,37,257.40635991096497,,,,,,,,,,,,,,,,,,,,,,,,,,,,,,,,,,,,,,,,,,,,,,,,,,,,,,,,,,,,,,,,,,,,,,,,,,,,,,,,,125.0,200.0,200.0,125.0,117.0,117.0,2.1,2.11,-258,287,0,268,217,-258,257.3918752670288,257.39191579818726,257.3940894603729,257.40635991096497,257.5567934513092,257.5567934513092,257.5567934513092,257.5567934513092,257.5567934513092,257.5567934513092,257.5567934513092,259.19133257865906,1,1.767512559890747,None,,,,,,,,,,,,,,,,,,9,3,2025-02-13_11h54.31.546,comp,2024.2.5,60.06802633406802,2025-02-13 11h59.07.194939 -0500,
56,56,0,critical,whd,60.0,4.0,lower,57.0,133.0,133.0,57.0,55.0,55.0,2,1.6170392036437988,None,,,,,0,0,0,0,0,56,56,94,259.2064287662506,,,,,,,,,,,,,,,,,,,,,,,,,,,,,,,,,,,,,,,,,,,,,,,,,,,,,,,,,,,,,,,,,,,,,,,,,,,,,,,,,57.0,133.0,133.0,57.0,55.0,55.0,4.0,4.1,-191,-253,0,18,152,-274,259.19214248657227,259.19218349456787,259.19438457489014,259.2064287662506,259.35643315315247,259.35643315315247,259.35643315315247,259.35643315315247,259.35643315315247,259.35643315315247,259.35643315315247,260.84085273742676,2,1.6170392036437988,None,,,,,,,,,,,,,,,,,,9,3,2025-02-13_11h54.31.546,comp,2024.2.5,60.06802633406802,2025-02-13 11h59.07.194939 -0500,
57,57,0,filler_random,None,None,None,None,None,None,None,None,None,None,2,0.9834861755371094,None,,,,,0,0,0,0,0,57,57,168,260.8564646244049,,,,,,,,,,,,,,,,,,,,,,,,,,,,,,,,,,,,,,,,,,,,,,,,,,,,,,,,,,,,,,,,,,,,,,,,,,,,,,,,,67.2679526731305,88.33861362495648,127.82011552907659,110.71047955619635,87.73859442016257,86.08104276826782,3.0,3.1,-196,258,0,-3,194,-287,260.8417809009552,260.8418228626251,260.8444707393646,260.8564646244049,261.0065715312958,261.0065715312958,261.0065715312958,261.0065715312958,261.0065715312958,261.0065715312958,261.0065715312958,261.84130120277405,2,0.9834861755371094,None,,,,,,,,,,,,,,,,,,9,3,2025-02-13_11h54.31.546,comp,2024.2.5,60.06802633406802,2025-02-13 11h59.07.194939 -0500,
58,58,0,critical,whd,45.0,2.1,upper,125.0,200.0,200.0,125.0,117.0,117.0,1,1.5502135753631592,None,,,,,0,0,0,0,0,58,58,13,261.8566880226135,,,,,,,,,,,,,,,,,,,,,,,,,,,,,,,,,,,,,,,,,,,,,,,,,,,,,,,,,,,,,,,,,,,,,,,,,,,,,,,,,125.0,200.0,200.0,125.0,117.0,117.0,2.1,2.11,-258,285,0,265,217,-254,261.8421223163605,261.8421642780304,261.8444004058838,261.8566880226135,262.00665974617004,262.00665974617004,262.00665974617004,262.00665974617004,262.00665974617004,262.00665974617004,262.00665974617004,263.4081382751465,1,1.5502135753631592,None,,,,,,,,,,,,,,,,,,9,3,2025-02-13_11h54.31.546,comp,2024.2.5,60.06802633406802,2025-02-13 11h59.07.194939 -0500,
59,59,0,filler_random,None,None,None,None,None,None,None,None,None,None,2,1.3590087890625,None,,,,,0,0,0,0,0,59,59,165,263.42327332496643,,,,,,,,,,,,,,,,,,,,,,,,,,,,,,,,,,,,,,,,,,,,,,,,,,,,,,,,,,,,,,,,,,,,,,,,,,,,,,,,,78.04572835267896,142.6870154236508,115.23175211426125,126.74500427520196,172.7463176629867,65.10680813840621,4.0,4.2,-231,-2,0,-262,192,-6,263.40903091430664,263.40909600257874,263.4112796783447,263.42327332496643,263.57319808006287,263.57319808006287,263.57319808006287,263.57319808006287,263.57319808006287,263.57319808006287,263.57319808006287,264.7911796569824,2,1.3590087890625,None,,,,,,,,,,,,,,,,,,9,3,2025-02-13_11h54.31.546,comp,2024.2.5,60.06802633406802,2025-02-13 11h59.07.194939 -0500,
60,60,0,filler_square,None,None,None,None,None,None,None,None,None,None,2,0.959632158279419,None,,,,,0,0,0,0,0,60,60,186,264.8066408634186,,,,,,,,,,,,,,,,,,,,,,,,,,,,,,,,,,,,,,,,,,,,,,,,,,,,,,,,,,,,,,,,,,,,,,,,,,,,,,,,,84.98540541354595,105.86430665914233,143.71162174933545,143.71162174933545,133.28047313004686,80.89782419291095,1.0,1.2,-221,-10,0,-4,208,15,264.79215908050537,264.79220247268677,264.79436111450195,264.8066408634186,264.9566011428833,264.9566011428833,264.9566011428833,264.9566011428833,264.9566011428833,264.9566011428833,264.9566011428833,265.7743294239044,2,0.959632158279419,None,,,,,,,,,,,,,,,,,,9,3,2025-02-13_11h54.31.546,comp,2024.2.5,60.06802633406802,2025-02-13 11h59.07.194939 -0500,
61,61,0,critical,whd,60.0,4.0,upper,125.0,200.0,200.0,125.0,100.0,100.0,1,0.9603111743927002,None,,,,,0,0,0,0,0,61,61,95,265.7899911403656,,,,,,,,,,,,,,,,,,,,,,,,,,,,,,,,,,,,,,,,,,,,,,,,,,,,,,,,,,,,,,,,,,,,,,,,,,,,,,,,,125.0,200.0,200.0,125.0,100.0,100.0,4.0,4.2,-258,0,0,-288,208,16,265.77513551712036,265.7751772403717,265.77724719047546,265.7899911403656,265.9399576187134,265.9399576187134,265.9399576187134,265.9399576187134,265.9399576187134,265.9399576187134,265.9399576187134,266.75783705711365,1,0.9603111743927002,None,,,,,,,,,,,,,,,,,,9,3,2025-02-13_11h54.31.546,comp,2024.2.5,60.06802633406802,2025-02-13 11h59.07.194939 -0500,
62,62,0,critical,hdw,45.0,2.1,upper,200.0,125.0,117.0,117.0,125.0,200.0,3,1.7930524349212646,None,,,,,0,0,0,0,0,62,62,45,266.77319836616516,,,,,,,,,,,,,,,,,,,,,,,,,,,,,,,,,,,,,,,,,,,,,,,,,,,,,,,,,,,,,,,,,,,,,,,,,,,,,,,,,200.0,125.0,117.0,117.0,125.0,200.0,2.1,2.11,-217,281,0,259,254,-278,266.7587115764618,266.75875306129456,266.7615509033203,266.77319836616516,266.9232952594757,266.9232952594757,266.9232952594757,266.9232952594757,266.9232952594757,266.9232952594757,266.9232952594757,268.5744433403015,3,1.7930524349212646,None,,,,,,,,,,,,,,,,,,9,3,2025-02-13_11h54.31.546,comp,2024.2.5,60.06802633406802,2025-02-13 11h59.07.194939 -0500,
63,63,0,filler_square,None,None,None,None,None,None,None,None,None,None,2,2.296874523162842,None,,,,,0,0,0,0,0,63,63,191,268.58996391296387,,,,,,,,,,,,,,,,,,,,,,,,,,,,,,,,,,,,,,,,,,,,,,,,,,,,,,,,,,,,,,,,,,,,,,,,,,,,,,,,,84.66647791315368,60.83113573734324,90.19007127718005,90.19007127718005,80.40067247132369,76.81512317808333,4.0,4.2,-172,8,0,-273,180,11,268.5753734111786,268.57541489601135,268.57791352272034,268.58996391296387,268.7397451400757,268.7397451400757,268.7397451400757,268.7397451400757,268.7397451400757,268.7397451400757,268.7397451400757,270.8910028934479,2,2.296874523162842,None,,,,,,,,,,,,,,,,,,9,3,2025-02-13_11h54.31.546,comp,2024.2.5,60.06802633406802,2025-02-13 11h59.07.194939 -0500,
64,64,0,catch,None,None,None,None,None,None,None,None,None,None,1,0.965517520904541,None,,,,,0,0,0,0,0,64,64,125,270.90659952163696,,,,,,,,,,,,,,,,,,,,,,,,,,,,,,,,,,,,,,,,,,,,,,,,,,,,,,,,,,,,,,,,,,,,,,,,,,,,,,,,,174,151,111,79,60,130,3.0,3.2,-211,-261,0,-16,200,267,270.8920805454254,270.89212441444397,270.89442229270935,270.90659952163696,271.05661940574646,271.05661940574646,271.05661940574646,271.05661940574646,271.05661940574646,271.05661940574646,271.05661940574646,271.8743999004364,1,0.965517520904541,None,,,,,,,,,,,,,,,,,,9,3,2025-02-13_11h54.31.546,comp,2024.2.5,60.06802633406802,2025-02-13 11h59.07.194939 -0500,
65,65,0,critical,whd,60.0,2.1,upper,125.0,200.0,200.0,125.0,100.0,100.0,1,2.988028049468994,None,,,,,0,0,0,0,0,65,65,39,271.88983368873596,,,,,,,,,,,,,,,,,,,,,,,,,,,,,,,,,,,,,,,,,,,,,,,,,,,,,,,,,,,,,,,,,,,,,,,,,,,,,,,,,125.0,200.0,200.0,125.0,100.0,100.0,2.1,2.11,-258,263,0,270,208,-277,271.8752121925354,271.875253200531,271.87770080566406,271.88983368873596,272.04002261161804,272.04002261161804,272.04002261161804,272.04002261161804,272.04002261161804,272.04002261161804,272.04002261161804,274.89116859436035,1,2.988028049468994,None,,,,,,,,,,,,,,,,,,9,3,2025-02-13_11h54.31.546,comp,2024.2.5,60.06802633406802,2025-02-13 11h59.07.194939 -0500,
66,66,0,critical,dhw,60.0,2.1,upper,100.0,100.0,200.0,125.0,125.0,200.0,3,1.717153787612915,None,,,,,0,0,0,0,0,66,66,3,274.9062819480896,,,,,,,,,,,,,,,,,,,,,,,,,,,,,,,,,,,,,,,,,,,,,,,,,,,,,,,,,,,,,,,,,,,,,,,,,,,,,,,,,100.0,100.0,200.0,125.0,125.0,200.0,2.1,2.11,-208,278,0,256,258,-260,274.89196252822876,274.89200234413147,274.8943967819214,274.9062819480896,275.05664324760437,275.05664324760437,275.05664324760437,275.05664324760437,275.05664324760437,275.05664324760437,275.05664324760437,276.6247055530548,3,1.717153787612915,None,,,,,,,,,,,,,,,,,,9,3,2025-02-13_11h54.31.546,comp,2024.2.5,60.06802633406802,2025-02-13 11h59.07.194939 -0500,
67,67,0,filler_square,None,None,None,None,None,None,None,None,None,None,3,1.126176118850708,None,,,,,0,0,0,0,0,67,67,179,276.6399099826813,,,,,,,,,,,,,,,,,,,,,,,,,,,,,,,,,,,,,,,,,,,,,,,,,,,,,,,,,,,,,,,,,,,,,,,,,,,,,,,,,179.05339032778366,97.09324419949651,65.74018371393277,104.80792765408597,195.8313446144619,195.8313446144619,4.0,4.1,-197,-260,0,16,246,-276,276.62569761276245,276.625741481781,276.62854862213135,276.6399099826813,276.7898874282837,276.7898874282837,276.7898874282837,276.7898874282837,276.7898874282837,276.7898874282837,276.7898874282837,277.77447962760925,3,1.126176118850708,None,,,,,,,,,,,,,,,,,,9,3,2025-02-13_11h54.31.546,comp,2024.2.5,60.06802633406802,2025-02-13 11h59.07.194939 -0500,
68,68,0,critical,whd,60.0,1.0,upper,125.0,200.0,200.0,125.0,100.0,100.0,1,1.2245726585388184,None,,,,,0,0,0,0,0,68,68,91,277.78981137275696,,,,,,,,,,,,,,,,,,,,,,,,,,,,,,,,,,,,,,,,,,,,,,,,,,,,,,,,,,,,,,,,,,,,,,,,,,,,,,,,,125.0,200.0,200.0,125.0,100.0,100.0,1.0,1.1,-738,288,-480,276,-272,280,277.7753050327301,277.7753462791443,277.77802419662476,277.78981137275696,277.9398844242096,277.9398844242096,277.9398844242096,277.9398844242096,277.9398844242096,277.9398844242096,277.9398844242096,279.024386882782,1,1.2245726585388184,None,,,,,,,,,,,,,,,,,,9,3,2025-02-13_11h54.31.546,comp,2024.2.5,60.06802633406802,2025-02-13 11h59.07.194939 -0500,
69,69,0,critical,dhw,45.0,3.0,lower,65.0,65.0,133.0,57.0,57.0,133.0,2,3.7105517387390137,None,,,,,0,0,0,0,0,69,69,50,279.03982424736023,,,,,,,,,,,,,,,,,,,,,,,,,,,,,,,,,,,,,,,,,,,,,,,,,,,,,,,,,,,,,,,,,,,,,,,,,,,,,,,,,65.0,65.0,133.0,57.0,57.0,133.0,3.0,3.2,-157,-273,0,-13,191,265,279.02520632743835,279.02524876594543,279.02740240097046,279.03982424736023,279.1896231174469,279.1896231174469,279.1896231174469,279.1896231174469,279.1896231174469,279.1896231174469,279.1896231174469,282.757527589798,2,3.7105517387390137,None,,,,,,,,,,,,,,,,,,9,3,2025-02-13_11h54.31.546,comp,2024.2.5,60.06802633406802,2025-02-13 11h59.07.194939 -0500,
70,70,0,filler_random,None,None,None,None,None,None,None,None,None,None,1,1.1680819988250732,None,,,,,0,0,0,0,0,70,70,138,282.773136138916,,,,,,,,,,,,,,,,,,,,,,,,,,,,,,,,,,,,,,,,,,,,,,,,,,,,,,,,,,,,,,,,,,,,,,,,,,,,,,,,,158.1249940935582,186.1737003876975,150.18340483950743,105.277941457269,198.3179230217272,128.4611643159958,4.0,4.1,-242,-269,0,-15,213,-284,282.7584536075592,282.7584958076477,282.761004447937,282.773136138916,282.92326307296753,282.92326307296753,282.92326307296753,282.92326307296753,282.92326307296753,282.92326307296753,282.92326307296753,283.95761132240295,1,1.1680819988250732,None,,,,,,,,,,,,,,,,,,9,3,2025-02-13_11h54.31.546,comp,2024.2.5,60.06802633406802,2025-02-13 11h59.07.194939 -0500,
71,71,0,catch,None,None,None,None,None,None,None,None,None,None,1,0.9366817474365234,None,,,,,0,0,0,0,0,71,71,120,283.9728925228119,,,,,,,,,,,,,,,,,,,,,,,,,,,,,,,,,,,,,,,,,,,,,,,,,,,,,,,,,,,,,,,,,,,,,,,,,,,,,,,,,75,115,196,129,61,129,1.0,1.2,-218,6,0,1,225,15,283.95866107940674,283.9587025642395,283.9612047672272,283.9728925228119,284.1231200695038,284.1231200695038,284.1231200695038,284.1231200695038,284.1231200695038,284.1231200695038,284.1231200695038,284.9242877960205,1,0.9366817474365234,None,,,,,,,,,,,,,,,,,,9,3,2025-02-13_11h54.31.546,comp,2024.2.5,60.06802633406802,2025-02-13 11h59.07.194939 -0500,
72,72,0,critical,dhw,60.0,3.0,lower,55.0,55.0,133.0,57.0,57.0,133.0,3,2.8895103931427,None,,,,,0,0,0,0,0,72,72,56,284.9396140575409,,,,,,,,,,,,,,,,,,,,,,,,,,,,,,,,,,,,,,,,,,,,,,,,,,,,,,,,,,,,,,,,,,,,,,,,,,,,,,,,,55.0,55.0,133.0,57.0,57.0,133.0,3.0,3.2,-152,-285,0,-19,191,265,284.9250898361206,284.9251308441162,284.927268743515,284.9396140575409,285.08965015411377,285.08965015411377,285.08965015411377,285.08965015411377,285.08965015411377,285.08965015411377,285.08965015411377,287.8409011363983,3,2.8895103931427,None,,,,,,,,,,,,,,,,,,9,3,2025-02-13_11h54.31.546,comp,2024.2.5,60.06802633406802,2025-02-13 11h59.07.194939 -0500,
73,73,0,critical,wdh,45.0,1.0,upper,125.0,200.0,117.0,117.0,200.0,125.0,1,2.4612560272216797,None,,,,,0,0,0,0,0,73,73,73,287.8728082180023,,,,,,,,,,,,,,,,,,,,,,,,,,,,,,,,,,,,,,,,,,,,,,,,,,,,,,,,,,,,,,,,,,,,,,,,,,,,,,,,,125.0,200.0,117.0,117.0,200.0,125.0,1.0,1.1,-734,282,-480,265,-263,263,287.841712474823,287.8417537212372,287.8455693721771,287.8728082180023,288.00642466545105,288.00642466545105,288.00642466545105,288.00642466545105,288.00642466545105,288.00642466545105,288.00642466545105,290.340882062912,1,2.4612560272216797,None,,,,,,,,,,,,,,,,,,9,3,2025-02-13_11h54.31.546,comp,2024.2.5,60.06802633406802,2025-02-13 11h59.07.194939 -0500,
74,74,0,critical,hwd,60.0,4.0,lower,133.0,57.0,57.0,133.0,55.0,55.0,1,1.8093788623809814,None,,,,,0,0,0,0,0,74,74,106,290.3567018508911,,,,,,,,,,,,,,,,,,,,,,,,,,,,,,,,,,,,,,,,,,,,,,,,,,,,,,,,,,,,,,,,,,,,,,,,,,,,,,,,,133.0,57.0,57.0,133.0,55.0,55.0,4.0,4.1,-191,-250,0,-8,190,-251,290.34169459342957,290.3417365550995,290.34430623054504,290.3567018508911,290.506308555603,290.506308555603,290.506308555603,290.506308555603,290.506308555603,290.506308555603,290.506308555603,292.1739935874939,1,1.8093788623809814,None,,,,,,,,,,,,,,,,,,9,3,2025-02-13_11h54.31.546,comp,2024.2.5,60.06802633406802,2025-02-13 11h59.07.194939 -0500,
75,75,0,filler_random,None,None,None,None,None,None,None,None,None,None,2,17.335541009902954,None,,,,,0,0,0,0,0,75,75,149,292.18957448005676,,,,,,,,,,,,,,,,,,,,,,,,,,,,,,,,,,,,,,,,,,,,,,,,,,,,,,,,,,,,,,,,,,,,,,,,,,,,,,,,,177.1945053283039,96.63669375411021,121.29467203671588,177.20895188880513,129.36928850471344,123.4479038149805,3.0,3.1,-233,280,0,-1,246,-258,292.17497968673706,292.1750214099884,292.1777665615082,292.18957448005676,292.33961606025696,292.33961606025696,292.33961606025696,292.33961606025696,292.33961606025696,292.33961606025696,292.33961606025696,309.54070925712585,2,17.335541009902954,None,,,,,,,,,,,,,,,,,,9,3,2025-02-13_11h54.31.546,comp,2024.2.5,60.06802633406802,2025-02-13 11h59.07.194939 -0500,
76,76,0,critical,dwh,45.0,2.1,upper,117.0,117.0,125.0,200.0,200.0,125.0,2,1.3691565990447998,None,,,,,0,0,0,0,0,76,76,5,309.5558865070343,,,,,,,,,,,,,,,,,,,,,,,,,,,,,,,,,,,,,,,,,,,,,,,,,,,,,,,,,,,,,,,,,,,,,,,,,,,,,,,,,117.0,117.0,125.0,200.0,200.0,125.0,2.1,2.12,-254,-268,0,-288,258,285,309.5415053367615,309.5415451526642,309.54407024383545,309.5558865070343,309.7062785625458,309.7062785625458,309.7062785625458,309.7062785625458,309.7062785625458,309.7062785625458,309.7062785625458,310.94067907333374,2,1.3691565990447998,None,,,,,,,,,,,,,,,,,,9,3,2025-02-13_11h54.31.546,comp,2024.2.5,60.06802633406802,2025-02-13 11h59.07.194939 -0500,
77,77,0,filler_square,None,None,None,None,None,None,None,None,None,None,1,1.3688514232635498,None,,,,,0,0,0,0,0,77,77,197,310.9560339450836,,,,,,,,,,,,,,,,,,,,,,,,,,,,,,,,,,,,,,,,,,,,,,,,,,,,,,,,,,,,,,,,,,,,,,,,,,,,,,,,,123.88883495040966,123.88883495040966,111.67766407584587,84.93031960230817,75.08426331827339,122.62381495310669,2.2,2.21,-200,-273,0,282,200,260,310.9416620731354,310.9417042732239,310.94426107406616,310.9560339450836,311.1060447692871,311.1060447692871,311.1060447692871,311.1060447692871,311.1060447692871,311.1060447692871,311.1060447692871,312.3406150341034,1,1.3688514232635498,None,,,,,,,,,,,,,,,,,,9,3,2025-02-13_11h54.31.546,comp,2024.2.5,60.06802633406802,2025-02-13 11h59.07.194939 -0500,
78,78,0,critical,whd,45.0,1.0,upper,125.0,200.0,200.0,125.0,117.0,117.0,1,1.794257640838623,None,,,,,0,0,0,0,0,78,78,85,312.3558704853058,,,,,,,,,,,,,,,,,,,,,,,,,,,,,,,,,,,,,,,,,,,,,,,,,,,,,,,,,,,,,,,,,,,,,,,,,,,,,,,,,125.0,200.0,200.0,125.0,117.0,117.0,1.0,1.2,-258,1,0,14,217,-19,312.34139609336853,312.3414378166199,312.34392046928406,312.3558704853058,312.5062577724457,312.5062577724457,312.5062577724457,312.5062577724457,312.5062577724457,312.5062577724457,312.5062577724457,314.15744638442993,1,1.794257640838623,None,,,,,,,,,,,,,,,,,,9,3,2025-02-13_11h54.31.546,comp,2024.2.5,60.06802633406802,2025-02-13 11h59.07.194939 -0500,
79,79,0,critical,dhw,60.0,2.1,lower,55.0,55.0,133.0,57.0,57.0,133.0,2,1.984633445739746,None,,,,,0,0,0,0,0,79,79,26,314.17285537719727,,,,,,,,,,,,,,,,,,,,,,,,,,,,,,,,,,,,,,,,,,,,,,,,,,,,,,,,,,,,,,,,,,,,,,,,,,,,,,,,,55.0,55.0,133.0,57.0,57.0,133.0,2.1,2.12,-152,-278,0,-277,191,254,314.15828943252563,314.15833163261414,314.1607265472412,314.17285537719727,314.3226640224457,314.3226640224457,314.3226640224457,314.3226640224457,314.3226640224457,314.3226640224457,314.3226640224457,316.1737322807312,2,1.984633445739746,None,,,,,,,,,,,,,,,,,,9,3,2025-02-13_11h54.31.546,comp,2024.2.5,60.06802633406802,2025-02-13 11h59.07.194939 -0500,
80,80,0,critical,wdh,60.0,3.0,lower,57.0,133.0,55.0,55.0,133.0,57.0,1,2.0086379051208496,None,,,,,0,0,0,0,0,80,80,80,316.18921160697937,,,,,,,,,,,,,,,,,,,,,,,,,,,,,,,,,,,,,,,,,,,,,,,,,,,,,,,,,,,,,,,,,,,,,,,,,,,,,,,,,57.0,133.0,55.0,55.0,133.0,57.0,3.0,3.1,-190,274,0,12,152,-254,316.1745307445526,316.1745717525482,316.1767632961273,316.18921160697937,316.3392789363861,316.3392789363861,316.3392789363861,316.3392789363861,316.3392789363861,316.3392789363861,316.3392789363861,318.2070837020874,1,2.0086379051208496,None,,,,,,,,,,,,,,,,,,9,3,2025-02-13_11h54.31.546,comp,2024.2.5,60.06802633406802,2025-02-13 11h59.07.194939 -0500,
81,81,0,critical,hwd,45.0,2.1,upper,200.0,125.0,125.0,200.0,117.0,117.0,2,1.3837146759033203,None,,,,,0,0,0,0,0,81,81,41,318.222704410553,,,,,,,,,,,,,,,,,,,,,,,,,,,,,,,,,,,,,,,,,,,,,,,,,,,,,,,,,,,,,,,,,,,,,,,,,,,,,,,,,200.0,125.0,125.0,200.0,117.0,117.0,2.1,2.11,-258,275,0,266,254,-267,318.20787525177,318.20791578292847,318.210298538208,318.222704410553,318.37283396720886,318.37283396720886,318.37283396720886,318.37283396720886,318.37283396720886,318.37283396720886,318.37283396720886,319.6238124370575,2,1.3837146759033203,None,,,,,,,,,,,,,,,,,,9,3,2025-02-13_11h54.31.546,comp,2024.2.5,60.06802633406802,2025-02-13 11h59.07.194939 -0500,
82,82,0,catch,None,None,None,None,None,None,None,None,None,None,3,2.078643798828125,None,,,,,0,0,0,0,0,82,82,121,319.6392333507538,,,,,,,,,,,,,,,,,,,,,,,,,,,,,,,,,,,,,,,,,,,,,,,,,,,,,,,,,,,,,,,,,,,,,,,,,,,,,,,,,78,112,74,116,156,169,1.0,1.2,-210,8,0,-3,238,-11,319.6248571872711,319.62490129470825,319.62708258628845,319.6392333507538,319.7896795272827,319.7896795272827,319.7896795272827,319.7896795272827,319.7896795272827,319.7896795272827,319.7896795272827,321.72388911247253,3,2.078643798828125,None,,,,,,,,,,,,,,,,,,9,3,2025-02-13_11h54.31.546,comp,2024.2.5,60.06802633406802,2025-02-13 11h59.07.194939 -0500,
83,83,0,filler_random,None,None,None,None,None,None,None,None,None,None,2,0.8894627094268799,None,,,,,0,0,0,0,0,83,83,162,321.7392852306366,,,,,,,,,,,,,,,,,,,,,,,,,,,,,,,,,,,,,,,,,,,,,,,,,,,,,,,,,,,,,,,,,,,,,,,,,,,,,,,,,95.78210409520112,137.54598254088566,165.73667345608214,123.81320763731657,70.93306078353054,74.88595674573925,4.0,4.1,-227,-273,0,0,195,-258,321.7247965335846,321.7248377799988,321.7271022796631,321.7392852306366,321.88936400413513,321.88936400413513,321.88936400413513,321.88936400413513,321.88936400413513,321.88936400413513,321.88936400413513,322.64064502716064,2,0.8894627094268799,None,,,,,,,,,,,,,,,,,,9,3,2025-02-13_11h54.31.546,comp,2024.2.5,60.06802633406802,2025-02-13 11h59.07.194939 -0500,
84,84,0,filler_random,None,None,None,None,None,None,None,None,None,None,3,1.2048356533050537,None,,,,,0,0,0,0,0,84,84,169,322.6559386253357,,,,,,,,,,,,,,,,,,,,,,,,,,,,,,,,,,,,,,,,,,,,,,,,,,,,,,,,,,,,,,,,,,,,,,,,,,,,,,,,,190.94126952291472,67.33211404679676,83.06172052308577,174.2060165021578,151.6465332166491,112.63251689743859,3.0,3.1,-217,270,0,-19,239,-287,322.6415801048279,322.6416208744049,322.6441795825958,322.6559386253357,322.8061091899872,322.8061091899872,322.8061091899872,322.8061091899872,322.8061091899872,322.8061091899872,322.8061091899872,323.87386536598206,3,1.2048356533050537,None,,,,,,,,,,,,,,,,,,9,3,2025-02-13_11h54.31.546,comp,2024.2.5,60.06802633406802,2025-02-13 11h59.07.194939 -0500,
85,85,0,critical,dwh,45.0,3.0,upper,117.0,117.0,125.0,200.0,200.0,125.0,2,1.0284969806671143,None,,,,,0,0,0,0,0,85,85,63,323.88916301727295,,,,,,,,,,,,,,,,,,,,,,,,,,,,,,,,,,,,,,,,,,,,,,,,,,,,,,,,,,,,,,,,,,,,,,,,,,,,,,,,,117.0,117.0,125.0,200.0,200.0,125.0,3.0,3.1,-254,286,0,-17,258,-259,323.87477707862854,323.87481904029846,323.8775050640106,323.88916301727295,324.0394055843353,324.0394055843353,324.0394055843353,324.0394055843353,324.0394055843353,324.0394055843353,324.0394055843353,324.924031496048,2,1.0284969806671143,None,,,,,,,,,,,,,,,,,,9,3,2025-02-13_11h54.31.546,comp,2024.2.5,60.06802633406802,2025-02-13 11h59.07.194939 -0500,
86,86,0,critical,dhw,45.0,2.1,lower,65.0,65.0,133.0,57.0,57.0,133.0,3,1.489466905593872,None,,,,,0,0,0,0,0,86,86,24,324.9393033981323,,,,,,,,,,,,,,,,,,,,,,,,,,,,,,,,,,,,,,,,,,,,,,,,,,,,,,,,,,,,,,,,,,,,,,,,,,,,,,,,,65.0,65.0,133.0,57.0,57.0,133.0,2.1,2.11,-157,261,0,266,191,-263,324.9248676300049,324.92490887641907,324.9275710582733,324.9393033981323,325.0896737575531,325.0896737575531,325.0896737575531,325.0896737575531,325.0896737575531,325.0896737575531,325.0896737575531,326.440575838089,3,1.489466905593872,None,,,,,,,,,,,,,,,,,,9,3,2025-02-13_11h54.31.546,comp,2024.2.5,60.06802633406802,2025-02-13 11h59.07.194939 -0500,
87,87,0,critical,wdh,45.0,4.0,lower,57.0,133.0,65.0,65.0,133.0,57.0,3,3.388840913772583,None,,,,,0,0,0,0,0,87,87,76,326.45586133003235,,,,,,,,,,,,,,,,,,,,,,,,,,,,,,,,,,,,,,,,,,,,,,,,,,,,,,,,,,,,,,,,,,,,,,,,,,,,,,,,,57.0,133.0,65.0,65.0,133.0,57.0,4.0,4.1,-195,-274,0,17,157,-275,326.44138526916504,326.4414265155792,326.44395089149475,326.45586133003235,326.6062111854553,326.6062111854553,326.6062111854553,326.6062111854553,326.6062111854553,326.6062111854553,326.6062111854553,329.8571617603302,3,3.388840913772583,None,,,,,,,,,,,,,,,,,,9,3,2025-02-13_11h54.31.546,comp,2024.2.5,60.06802633406802,2025-02-13 11h59.07.194939 -0500,
88,88,0,critical,hwd,45.0,4.0,upper,200.0,125.0,125.0,200.0,117.0,117.0,2,3.6141345500946045,None,,,,,0,0,0,0,0,88,88,101,329.8723967075348,,,,,,,,,,,,,,,,,,,,,,,,,,,,,,,,,,,,,,,,,,,,,,,,,,,,,,,,,,,,,,,,,,,,,,,,,,,,,,,,,200.0,125.0,125.0,200.0,117.0,117.0,4.0,4.2,-258,-2,0,-278,254,2,329.85794162750244,329.85798168182373,329.86039900779724,329.8723967075348,330.02283239364624,330.02283239364624,330.02283239364624,330.02283239364624,330.02283239364624,330.02283239364624,330.02283239364624,333.4907522201538,2,3.6141345500946045,None,,,,,,,,,,,,,,,,,,9,3,2025-02-13_11h54.31.546,comp,2024.2.5,60.06802633406802,2025-02-13 11h59.07.194939 -0500,
89,89,0,critical,hwd,60.0,2.1,lower,133.0,57.0,57.0,133.0,55.0,55.0,2,1.8276243209838867,None,,,,,0,0,0,0,0,89,89,42,333.50602197647095,,,,,,,,,,,,,,,,,,,,,,,,,,,,,,,,,,,,,,,,,,,,,,,,,,,,,,,,,,,,,,,,,,,,,,,,,,,,,,,,,133.0,57.0,57.0,133.0,55.0,55.0,2.1,2.11,-191,277,0,278,190,-264,333.49156427383423,333.49160742759705,333.4937870502472,333.50602197647095,333.655784368515,333.655784368515,333.655784368515,333.655784368515,333.655784368515,333.655784368515,333.655784368515,335.34033465385437,2,1.8276243209838867,None,,,,,,,,,,,,,,,,,,9,3,2025-02-13_11h54.31.546,comp,2024.2.5,60.06802633406802,2025-02-13 11h59.07.194939 -0500,
90,90,0,critical,hdw,45.0,3.0,upper,200.0,125.0,117.0,117.0,125.0,200.0,3,1.2987747192382812,None,,,,,0,0,0,0,0,90,90,111,335.35636138916016,,,,,,,,,,,,,,,,,,,,,,,,,,,,,,,,,,,,,,,,,,,,,,,,,,,,,,,,,,,,,,,,,,,,,,,,,,,,,,,,,200.0,125.0,117.0,117.0,125.0,200.0,3.0,3.2,-217,-258,0,19,254,279,335.34116196632385,335.34120440483093,335.3433542251587,335.35636138916016,335.5059311389923,335.5059311389923,335.5059311389923,335.5059311389923,335.5059311389923,335.5059311389923,335.5059311389923,336.6573987007141,3,1.2987747192382812,None,,,,,,,,,,,,,,,,,,9,3,2025-02-13_11h54.31.546,comp,2024.2.5,60.06802633406802,2025-02-13 11h59.07.194939 -0500,
91,91,0,critical,hwd,45.0,1.0,upper,200.0,125.0,125.0,200.0,117.0,117.0,2,1.1719920635223389,None,,,,,0,0,0,0,0,91,91,97,336.6726784706116,,,,,,,,,,,,,,,,,,,,,,,,,,,,,,,,,,,,,,,,,,,,,,,,,,,,,,,,,,,,,,,,,,,,,,,,,,,,,,,,,200.0,125.0,125.0,200.0,117.0,117.0,1.0,1.2,-258,-11,0,9,254,-16,336.65816378593445,336.6582055091858,336.6603455543518,336.6726784706116,336.8227627277374,336.8227627277374,336.8227627277374,336.8227627277374,336.8227627277374,336.8227627277374,336.8227627277374,337.85729002952576,2,1.1719920635223389,None,,,,,,,,,,,,,,,,,,9,3,2025-02-13_11h54.31.546,comp,2024.2.5,60.06802633406802,2025-02-13 11h59.07.194939 -0500,
92,92,0,filler_square,None,None,None,None,None,None,None,None,None,None,2,0.8142983913421631,None,,,,,0,0,0,0,0,92,92,173,337.87241530418396,,,,,,,,,,,,,,,,,,,,,,,,,,,,,,,,,,,,,,,,,,,,,,,,,,,,,,,,,,,,,,,,,,,,,,,,,,,,,,,,,66.04647515622601,171.6744914054329,190.64789725912976,190.64789725912976,158.12556436481532,106.9172820362511,2.2,2.21,-277,-272,0,268,245,286,337.85826420783997,337.85830545425415,337.86050605773926,337.87241530418396,338.02274656295776,338.02274656295776,338.02274656295776,338.02274656295776,338.02274656295776,338.02274656295776,338.02274656295776,338.6907272338867,2,0.8142983913421631,None,,,,,,,,,,,,,,,,,,9,3,2025-02-13_11h54.31.546,comp,2024.2.5,60.06802633406802,2025-02-13 11h59.07.194939 -0500,
93,93,0,critical,wdh,45.0,1.0,lower,57.0,133.0,65.0,65.0,133.0,57.0,1,1.9952309131622314,None,,,,,0,0,0,0,0,93,93,72,338.706383228302,,,,,,,,,,,,,,,,,,,,,,,,,,,,,,,,,,,,,,,,,,,,,,,,,,,,,,,,,,,,,,,,,,,,,,,,,,,,,,,,,57.0,133.0,65.0,65.0,133.0,57.0,1.0,1.3,285,-253,480,-287,637,-281,338.6915273666382,338.69156885147095,338.6937327384949,338.706383228302,338.8724904060364,338.8724904060364,338.8724904060364,338.8724904060364,338.8724904060364,338.8724904060364,338.8724904060364,340.7069523334503,1,1.9952309131622314,None,,,,,,,,,,,,,,,,,,9,3,2025-02-13_11h54.31.546,comp,2024.2.5,60.06802633406802,2025-02-13 11h59.07.194939 -0500,
94,94,0,critical,hwd,45.0,3.0,upper,200.0,125.0,125.0,200.0,117.0,117.0,2,2.178865909576416,None,,,,,0,0,0,0,0,94,94,99,340.7225754261017,,,,,,,,,,,,,,,,,,,,,,,,,,,,,,,,,,,,,,,,,,,,,,,,,,,,,,,,,,,,,,,,,,,,,,,,,,,,,,,,,200.0,125.0,125.0,200.0,117.0,117.0,3.0,3.1,-258,286,0,15,254,-277,340.7077422142029,340.70778250694275,340.7098047733307,340.7225754261017,340.8727140426636,340.8727140426636,340.8727140426636,340.8727140426636,340.8727140426636,340.8727140426636,340.8727140426636,342.9072165489197,2,2.178865909576416,None,,,,,,,,,,,,,,,,,,9,3,2025-02-13_11h54.31.546,comp,2024.2.5,60.06802633406802,2025-02-13 11h59.07.194939 -0500,
95,95,0,filler_random,None,None,None,None,None,None,None,None,None,None,3,1.186138391494751,None,,,,,0,0,0,0,0,95,95,152,342.9227306842804,,,,,,,,,,,,,,,,,,,,,,,,,,,,,,,,,,,,,,,,,,,,,,,,,,,,,,,,,,,,,,,,,,,,,,,,,,,,,,,,,103.29039095628363,91.4802713796997,73.68457173630874,145.816917033481,124.96247941295748,131.73789051951402,1.0,1.2,-215,4,0,-13,235,11,342.9080753326416,342.90811681747437,342.91015362739563,342.9227306842804,343.07266116142273,343.07266116142273,343.07266116142273,343.07266116142273,343.07266116142273,343.07266116142273,343.07266116142273,344.1237108707428,3,1.186138391494751,None,,,,,,,,,,,,,,,,,,9,3,2025-02-13_11h54.31.546,comp,2024.2.5,60.06802633406802,2025-02-13 11h59.07.194939 -0500,
96,96,0,critical,dwh,45.0,4.0,lower,65.0,65.0,57.0,133.0,133.0,57.0,2,1.9786651134490967,None,,,,,0,0,0,0,0,96,96,64,344.1389605998993,,,,,,,,,,,,,,,,,,,,,,,,,,,,,,,,,,,,,,,,,,,,,,,,,,,,,,,,,,,,,,,,,,,,,,,,,,,,,,,,,65.0,65.0,57.0,133.0,133.0,57.0,4.0,4.1,-195,-254,0,2,191,-283,344.12448143959045,344.1245231628418,344.1270444393158,344.1389605998993,344.2896001338959,344.2896001338959,344.2896001338959,344.2896001338959,344.2896001338959,344.2896001338959,344.2896001338959,346.12364625930786,2,1.9786651134490967,None,,,,,,,,,,,,,,,,,,9,3,2025-02-13_11h54.31.546,comp,2024.2.5,60.06802633406802,2025-02-13 11h59.07.194939 -0500,
97,97,0,critical,dwh,60.0,1.0,lower,55.0,55.0,57.0,133.0,133.0,57.0,2,1.2105140686035156,None,,,,,0,0,0,0,0,97,97,66,346.13911986351013,,,,,,,,,,,,,,,,,,,,,,,,,,,,,,,,,,,,,,,,,,,,,,,,,,,,,,,,,,,,,,,,,,,,,,,,,,,,,,,,,55.0,55.0,57.0,133.0,133.0,57.0,1.0,1.1,-670,276,-480,280,-289,261,346.1244332790375,346.1244764328003,346.12700176239014,346.13911986351013,346.289085149765,346.289085149765,346.289085149765,346.289085149765,346.289085149765,346.289085149765,346.289085149765,347.35690665245056,2,1.2105140686035156,None,,,,,,,,,,,,,,,,,,9,3,2025-02-13_11h54.31.546,comp,2024.2.5,60.06802633406802,2025-02-13 11h59.07.194939 -0500,
98,98,0,critical,whd,45.0,3.0,upper,125.0,200.0,200.0,125.0,117.0,117.0,1,1.7521448135375977,None,,,,,0,0,0,0,0,98,98,87,347.3725390434265,,,,,,,,,,,,,,,,,,,,,,,,,,,,,,,,,,,,,,,,,,,,,,,,,,,,,,,,,,,,,,,,,,,,,,,,,,,,,,,,,125.0,200.0,200.0,125.0,117.0,117.0,3.0,3.2,-258,-250,0,-15,217,273,347.35770654678345,347.3577470779419,347.3603699207306,347.3725390434265,347.52273511886597,347.52273511886597,347.52273511886597,347.52273511886597,347.52273511886597,347.52273511886597,347.52273511886597,349.1404209136963,1,1.7521448135375977,None,,,,,,,,,,,,,,,,,,9,3,2025-02-13_11h54.31.546,comp,2024.2.5,60.06802633406802,2025-02-13 11h59.07.194939 -0500,
99,99,0,filler_square,None,None,None,None,None,None,None,None,None,None,3,1.0420351028442383,None,,,,,0,0,0,0,0,99,99,196,349.15557646751404,,,,,,,,,,,,,,,,,,,,,,,,,,,,,,,,,,,,,,,,,,,,,,,,,,,,,,,,,,,,,,,,,,,,,,,,,,,,,,,,,65.17018359179671,84.81613977029936,102.90497882670653,60.296717630413426,118.88349279149709,118.88349279149709,2.1,2.12,-169,-266,0,-271,186,270,349.1413948535919,349.1414349079132,349.1439371109009,349.15557646751404,349.30572056770325,349.30572056770325,349.30572056770325,349.30572056770325,349.30572056770325,349.30572056770325,349.30572056770325,350.2068865299225,3,1.0420351028442383,None,,,,,,,,,,,,,,,,,,9,3,2025-02-13_11h54.31.546,comp,2024.2.5,60.06802633406802,2025-02-13 11h59.07.194939 -0500,
100,100,0,critical,dhw,45.0,2.1,upper,117.0,117.0,200.0,125.0,125.0,200.0,3,1.6949987411499023,None,,,,,0,0,0,0,0,100,100,1,350.2225317955017,,,,,,,,,,,,,,,,,,,,,,,,,,,,,,,,,,,,,,,,,,,,,,,,,,,,,,,,,,,,,,,,,,,,,,,,,,,,,,,,,117.0,117.0,200.0,125.0,125.0,200.0,2.1,2.11,-217,263,0,281,258,-279,350.20772099494934,350.2077627182007,350.2103774547577,350.2225317955017,350.372590303421,350.372590303421,350.372590303421,350.372590303421,350.372590303421,350.372590303421,350.372590303421,351.9238691329956,3,1.6949987411499023,None,,,,,,,,,,,,,,,,,,9,3,2025-02-13_11h54.31.546,comp,2024.2.5,60.06802633406802,2025-02-13 11h59.07.194939 -0500,
101,101,0,filler_random,None,None,None,None,None,None,None,None,None,None,2,0.884009838104248,None,,,,,0,0,0,0,0,101,101,160,351.93921518325806,,,,,,,,,,,,,,,,,,,,,,,,,,,,,,,,,,,,,,,,,,,,,,,,,,,,,,,,,,,,,,,,,,,,,,,,,,,,,,,,,75.68376387306145,58.31376113638067,110.03039128108105,194.35312536907978,80.13301702138176,163.76463752045083,3.0,3.1,-222,260,0,-12,275,-261,351.924786567688,351.9248285293579,351.9274616241455,351.93921518325806,352.0891172885895,352.0891172885895,352.0891172885895,352.0891172885895,352.0891172885895,352.0891172885895,352.0891172885895,352.8401575088501,2,0.884009838104248,None,,,,,,,,,,,,,,,,,,9,3,2025-02-13_11h54.31.546,comp,2024.2.5,60.06802633406802,2025-02-13 11h59.07.194939 -0500,
102,102,0,filler_random,None,None,None,None,None,None,None,None,None,None,3,1.350520133972168,None,,,,,0,0,0,0,0,102,102,140,352.85562205314636,,,,,,,,,,,,,,,,,,,,,,,,,,,,,,,,,,,,,,,,,,,,,,,,,,,,,,,,,,,,,,,,,,,,,,,,,,,,,,,,,104.67104323277565,196.5624905450109,181.4265382883163,97.3593770337641,164.15878618797086,110.12819038917343,2.1,2.11,-243,289,0,269,200,-272,352.84106826782227,352.8411114215851,352.8435342311859,352.85562205314636,353.005907535553,353.005907535553,353.005907535553,353.005907535553,353.005907535553,353.005907535553,353.005907535553,354.2235474586487,3,1.350520133972168,None,,,,,,,,,,,,,,,,,,9,3,2025-02-13_11h54.31.546,comp,2024.2.5,60.06802633406802,2025-02-13 11h59.07.194939 -0500,
103,103,0,critical,dwh,60.0,2.1,upper,100.0,100.0,125.0,200.0,200.0,125.0,2,1.2473490238189697,None,,,,,0,0,0,0,0,103,103,7,354.23881340026855,,,,,,,,,,,,,,,,,,,,,,,,,,,,,,,,,,,,,,,,,,,,,,,,,,,,,,,,,,,,,,,,,,,,,,,,,,,,,,,,,100.0,100.0,125.0,200.0,200.0,125.0,2.1,2.11,-246,274,0,268,258,-284,354.2243666648865,354.2244071960449,354.22709107398987,354.23881340026855,354.38916277885437,354.38916277885437,354.38916277885437,354.38916277885437,354.38916277885437,354.38916277885437,354.38916277885437,355.49042224884033,2,1.2473490238189697,None,,,,,,,,,,,,,,,,,,9,3,2025-02-13_11h54.31.546,comp,2024.2.5,60.06802633406802,2025-02-13 11h59.07.194939 -0500,
104,104,0,critical,dwh,45.0,2.1,lower,65.0,65.0,57.0,133.0,133.0,57.0,2,1.2348856925964355,None,,,,,0,0,0,0,0,104,104,4,355.50581884384155,,,,,,,,,,,,,,,,,,,,,,,,,,,,,,,,,,,,,,,,,,,,,,,,,,,,,,,,,,,,,,,,,,,,,,,,,,,,,,,,,65.0,65.0,57.0,133.0,133.0,57.0,2.1,2.11,-195,257,0,275,191,-258,355.49121856689453,355.49126052856445,355.4934113025665,355.50581884384155,355.65600514411926,355.65600514411926,355.65600514411926,355.65600514411926,355.65600514411926,355.65600514411926,355.65600514411926,356.75664353370667,2,1.2348856925964355,None,,,,,,,,,,,,,,,,,,9,3,2025-02-13_11h54.31.546,comp,2024.2.5,60.06802633406802,2025-02-13 11h59.07.194939 -0500,
105,105,0,critical,whd,45.0,2.1,lower,57.0,133.0,133.0,57.0,65.0,65.0,2,3.442229986190796,None,,,,,0,0,0,0,0,105,105,36,356.7720341682434,,,,,,,,,,,,,,,,,,,,,,,,,,,,,,,,,,,,,,,,,,,,,,,,,,,,,,,,,,,,,,,,,,,,,,,,,,,,,,,,,57.0,133.0,133.0,57.0,65.0,65.0,2.1,2.12,-191,-252,0,-275,157,285,356.7574622631073,356.7575044631958,356.76010251045227,356.7720341682434,356.9224398136139,356.9224398136139,356.9224398136139,356.9224398136139,356.9224398136139,356.9224398136139,356.9224398136139,360.22343254089355,2,3.442229986190796,None,,,,,,,,,,,,,,,,,,9,3,2025-02-13_11h54.31.546,comp,2024.2.5,60.06802633406802,2025-02-13 11h59.07.194939 -0500,
106,106,0,filler_random,None,None,None,None,None,None,None,None,None,None,3,1.2471327781677246,None,,,,,0,0,0,0,0,106,106,161,360.2391221523285,,,,,,,,,,,,,,,,,,,,,,,,,,,,,,,,,,,,,,,,,,,,,,,,,,,,,,,,,,,,,,,,,,,,,,,,,,,,,,,,,66.31420224770814,124.16688771458902,68.46000032527851,59.80451239035855,158.67335070905477,59.400933885929064,2.1,2.11,-188,271,0,278,156,-281,360.22436785697937,360.2244098186493,360.2268602848053,360.2391221523285,360.388959646225,360.388959646225,360.388959646225,360.388959646225,360.388959646225,360.388959646225,360.388959646225,361.4904112815857,3,1.2471327781677246,None,,,,,,,,,,,,,,,,,,9,3,2025-02-13_11h54.31.546,comp,2024.2.5,60.06802633406802,2025-02-13 11h59.07.194939 -0500,
107,107,0,filler_random,None,None,None,None,None,None,None,None,None,None,1,2.171260356903076,None,,,,,0,0,0,0,0,107,107,142,361.50581765174866,,,,,,,,,,,,,,,,,,,,,,,,,,,,,,,,,,,,,,,,,,,,,,,,,,,,,,,,,,,,,,,,,,,,,,,,,,,,,,,,,147.08350044939505,150.98605689175193,83.8273746255518,134.98596440500305,90.08236923275211,140.43349241166652,4.0,4.2,-239,6,0,-259,234,2,361.49135088920593,361.491393327713,361.49366307258606,361.50581765174866,361.65603852272034,361.65603852272034,361.65603852272034,361.65603852272034,361.65603852272034,361.65603852272034,361.65603852272034,363.6901834011078,1,2.171260356903076,None,,,,,,,,,,,,,,,,,,9,3,2025-02-13_11h54.31.546,comp,2024.2.5,60.06802633406802,2025-02-13 11h59.07.194939 -0500,
108,108,0,filler_random,None,None,None,None,None,None,None,None,None,None,1,1.138871431350708,None,,,,,0,0,0,0,0,108,108,145,363.70546102523804,,,,,,,,,,,,,,,,,,,,,,,,,,,,,,,,,,,,,,,,,,,,,,,,,,,,,,,,,,,,,,,,,,,,,,,,,,,,,,,,,120.70169579423617,164.03835841130103,67.27498101933419,61.98466053976365,57.62190828559664,115.86280596091098,1.0,1.3,271,-287,480,-284,665,-277,363.6911041736603,363.69114565849304,363.6935486793518,363.70546102523804,363.85559272766113,363.85559272766113,363.85559272766113,363.85559272766113,363.85559272766113,363.85559272766113,363.85559272766113,364.8568043708801,1,1.138871431350708,None,,,,,,,,,,,,,,,,,,9,3,2025-02-13_11h54.31.546,comp,2024.2.5,60.06802633406802,2025-02-13 11h59.07.194939 -0500,
109,109,0,critical,whd,45.0,4.0,lower,57.0,133.0,133.0,57.0,65.0,65.0,2,2.517451286315918,None,,,,,0,0,0,0,0,109,109,88,364.8720791339874,,,,,,,,,,,,,,,,,,,,,,,,,,,,,,,,,,,,,,,,,,,,,,,,,,,,,,,,,,,,,,,,,,,,,,,,,,,,,,,,,57.0,133.0,133.0,57.0,65.0,65.0,4.0,4.1,-191,-255,0,9,157,-271,364.85760498046875,364.8576455116272,364.8603217601776,364.8720791339874,365.0221424102783,365.0221424102783,365.0221424102783,365.0221424102783,365.0221424102783,365.0221424102783,365.0221424102783,367.4068350791931,2,2.517451286315918,None,,,,,,,,,,,,,,,,,,9,3,2025-02-13_11h54.31.546,comp,2024.2.5,60.06802633406802,2025-02-13 11h59.07.194939 -0500,
110,110,0,filler_random,None,None,None,None,None,None,None,None,None,None,3,4.791631460189819,None,,,,,0,0,0,0,0,110,110,154,367.422235250473,,,,,,,,,,,,,,,,,,,,,,,,,,,,,,,,,,,,,,,,,,,,,,,,,,,,,,,,,,,,,,,,,,,,,,,,,,,,,,,,,69.65749315403377,83.22520618967776,172.38666230045803,77.25894030872232,120.53688575343031,149.21564155370362,1.0,1.2,-176,-16,0,-2,209,-3,367.4077425003052,367.40778374671936,367.4103786945343,367.422235250473,367.572242975235,367.572242975235,367.572242975235,367.572242975235,367.572242975235,367.572242975235,367.572242975235,372.2234146595001,3,4.791631460189819,None,,,,,,,,,,,,,,,,,,9,3,2025-02-13_11h54.31.546,comp,2024.2.5,60.06802633406802,2025-02-13 11h59.07.194939 -0500,
111,111,0,critical,whd,60.0,2.1,lower,57.0,133.0,133.0,57.0,55.0,55.0,2,3.1582090854644775,None,,,,,0,0,0,0,0,111,111,14,372.2389838695526,,,,,,,,,,,,,,,,,,,,,,,,,,,,,,,,,,,,,,,,,,,,,,,,,,,,,,,,,,,,,,,,,,,,,,,,,,,,,,,,,57.0,133.0,133.0,57.0,55.0,55.0,2.1,2.11,-191,269,0,258,152,-275,372.22419261932373,372.22423124313354,372.22666096687317,372.2389838695526,372.38885521888733,372.38885521888733,372.38885521888733,372.38885521888733,372.38885521888733,372.38885521888733,372.38885521888733,375.40660095214844,2,3.1582090854644775,None,,,,,,,,,,,,,,,,,,9,3,2025-02-13_11h54.31.546,comp,2024.2.5,60.06802633406802,2025-02-13 11h59.07.194939 -0500,
112,112,0,filler_random,None,None,None,None,None,None,None,None,None,None,3,1.5502731800079346,None,,,,,0,0,0,0,0,112,112,167,375.4224100112915,,,,,,,,,,,,,,,,,,,,,,,,,,,,,,,,,,,,,,,,,,,,,,,,,,,,,,,,,,,,,,,,,,,,,,,,,,,,,,,,,194.1341227720176,162.515227304647,133.6291796147955,77.2025643049135,198.60813885825038,185.53712985153962,3.0,3.2,-216,-279,0,13,227,268,375.40757989883423,375.40762305259705,375.41048073768616,375.4224100112915,375.57249093055725,375.57249093055725,375.57249093055725,375.57249093055725,375.57249093055725,375.57249093055725,375.57249093055725,376.99016404151917,3,1.5502731800079346,None,,,,,,,,,,,,,,,,,,9,3,2025-02-13_11h54.31.546,comp,2024.2.5,60.06802633406802,2025-02-13 11h59.07.194939 -0500,
113,113,0,critical,hwd,45.0,4.0,lower,133.0,57.0,57.0,133.0,65.0,65.0,1,2.551004409790039,None,,,,,0,0,0,0,0,113,113,100,377.00531244277954,,,,,,,,,,,,,,,,,,,,,,,,,,,,,,,,,,,,,,,,,,,,,,,,,,,,,,,,,,,,,,,,,,,,,,,,,,,,,,,,,133.0,57.0,57.0,133.0,65.0,65.0,4.0,4.2,-191,17,0,-261,195,-18,376.9910686016083,376.9911119937897,376.99439334869385,377.00531244277954,377.1555190086365,377.1555190086365,377.1555190086365,377.1555190086365,377.1555190086365,377.1555190086365,377.1555190086365,379.57316970825195,1,2.551004409790039,None,,,,,,,,,,,,,,,,,,9,3,2025-02-13_11h54.31.546,comp,2024.2.5,60.06802633406802,2025-02-13 11h59.07.194939 -0500,
114,114,0,critical,wdh,60.0,2.1,upper,125.0,200.0,100.0,100.0,200.0,125.0,3,2.135890007019043,None,,,,,0,0,0,0,0,114,114,35,379.588583946228,,,,,,,,,,,,,,,,,,,,,,,,,,,,,,,,,,,,,,,,,,,,,,,,,,,,,,,,,,,,,,,,,,,,,,,,,,,,,,,,,125.0,200.0,100.0,100.0,200.0,125.0,2.1,2.12,-246,-258,0,-271,208,255,379.57397270202637,379.57401418685913,379.5764784812927,379.588583946228,379.7389373779297,379.7389373779297,379.7389373779297,379.7389373779297,379.7389373779297,379.7389373779297,379.7389373779297,381.7402458190918,3,2.135890007019043,None,,,,,,,,,,,,,,,,,,9,3,2025-02-13_11h54.31.546,comp,2024.2.5,60.06802633406802,2025-02-13 11h59.07.194939 -0500,
115,115,0,critical,whd,45.0,4.0,upper,125.0,200.0,200.0,125.0,117.0,117.0,1,1.5459210872650146,None,,,,,0,0,0,0,0,115,115,89,381.7553086280823,,,,,,,,,,,,,,,,,,,,,,,,,,,,,,,,,,,,,,,,,,,,,,,,,,,,,,,,,,,,,,,,,,,,,,,,,,,,,,,,,125.0,200.0,200.0,125.0,117.0,117.0,4.0,4.1,-258,-282,0,-8,217,-256,381.74102568626404,381.7411127090454,381.74336194992065,381.7553086280823,381.90559220314026,381.90559220314026,381.90559220314026,381.90559220314026,381.90559220314026,381.90559220314026,381.90559220314026,383.3068678379059,1,1.5459210872650146,None,,,,,,,,,,,,,,,,,,9,3,2025-02-13_11h54.31.546,comp,2024.2.5,60.06802633406802,2025-02-13 11h59.07.194939 -0500,
116,116,0,critical,wdh,45.0,3.0,upper,125.0,200.0,117.0,117.0,200.0,125.0,3,1.5379853248596191,None,,,,,0,0,0,0,0,116,116,75,383.32220578193665,,,,,,,,,,,,,,,,,,,,,,,,,,,,,,,,,,,,,,,,,,,,,,,,,,,,,,,,,,,,,,,,,,,,,,,,,,,,,,,,,125.0,200.0,117.0,117.0,200.0,125.0,3.0,3.2,-254,-275,0,-9,217,250,383.30769872665405,383.3077404499054,383.309942483902,383.32220578193665,383.4722709655762,383.4722709655762,383.4722709655762,383.4722709655762,383.4722709655762,383.4722709655762,383.4722709655762,384.8734142780304,3,1.5379853248596191,None,,,,,,,,,,,,,,,,,,9,3,2025-02-13_11h54.31.546,comp,2024.2.5,60.06802633406802,2025-02-13 11h59.07.194939 -0500,
117,117,0,critical,hwd,60.0,1.0,upper,200.0,125.0,125.0,200.0,100.0,100.0,2,1.8682513236999512,None,,,,,0,0,0,0,0,117,117,103,384.8886170387268,,,,,,,,,,,,,,,,,,,,,,,,,,,,,,,,,,,,,,,,,,,,,,,,,,,,,,,,,,,,,,,,,,,,,,,,,,,,,,,,,200.0,125.0,125.0,200.0,100.0,100.0,1.0,1.3,222,-261,480,-262,726,-254,384.8742048740387,384.8742456436157,384.8766484260559,384.8886170387268,385.03925681114197,385.03925681114197,385.03925681114197,385.03925681114197,385.03925681114197,385.03925681114197,385.03925681114197,386.7734034061432,2,1.8682513236999512,None,,,,,,,,,,,,,,,,,,9,3,2025-02-13_11h54.31.546,comp,2024.2.5,60.06802633406802,2025-02-13 11h59.07.194939 -0500,
118,118,0,critical,dwh,45.0,3.0,lower,65.0,65.0,57.0,133.0,133.0,57.0,3,2.944464921951294,None,,,,,0,0,0,0,0,118,118,62,386.78867626190186,,,,,,,,,,,,,,,,,,,,,,,,,,,,,,,,,,,,,,,,,,,,,,,,,,,,,,,,,,,,,,,,,,,,,,,,,,,,,,,,,65.0,65.0,57.0,133.0,133.0,57.0,3.0,3.1,-195,252,0,-6,191,-266,386.77420020103455,386.77424001693726,386.7766661643982,386.78867626190186,386.93868923187256,386.93868923187256,386.93868923187256,386.93868923187256,386.93868923187256,386.93868923187256,386.93868923187256,389.73983359336853,3,2.944464921951294,None,,,,,,,,,,,,,,,,,,9,3,2025-02-13_11h54.31.546,comp,2024.2.5,60.06802633406802,2025-02-13 11h59.07.194939 -0500,
119,119,0,filler_random,None,None,None,None,None,None,None,None,None,None,2,1.0417382717132568,None,,,,,0,0,0,0,0,119,119,134,389.75555181503296,,,,,,,,,,,,,,,,,,,,,,,,,,,,,,,,,,,,,,,,,,,,,,,,,,,,,,,,,,,,,,,,,,,,,,,,,,,,,,,,,72.66471960930997,163.02026528883616,77.75836380566699,195.98201122415853,170.37158533054668,73.92453180366718,3.0,3.2,-276,-251,0,0,231,259,389.7408022880554,389.7408447265625,389.74343848228455,389.75555181503296,389.90561842918396,389.90561842918396,389.90561842918396,389.90561842918396,389.90561842918396,389.90561842918396,389.90561842918396,390.8066189289093,2,1.0417382717132568,None,,,,,,,,,,,,,,,,,,9,3,2025-02-13_11h54.31.546,comp,2024.2.5,60.06802633406802,2025-02-13 11h59.07.194939 -0500,
120,120,0,critical,dhw,60.0,4.0,lower,55.0,55.0,133.0,57.0,57.0,133.0,3,1.2860393524169922,None,,,,,0,0,0,0,0,120,120,58,390.8222641944885,,,,,,,,,,,,,,,,,,,,,,,,,,,,,,,,,,,,,,,,,,,,,,,,,,,,,,,,,,,,,,,,,,,,,,,,,,,,,,,,,55.0,55.0,133.0,57.0,57.0,133.0,4.0,4.1,-152,-251,0,-1,191,-265,390.8074188232422,390.80745911598206,390.80996203422546,390.8222641944885,390.97209095954895,390.97209095954895,390.97209095954895,390.97209095954895,390.97209095954895,390.97209095954895,390.97209095954895,392.1234538555145,3,1.2860393524169922,None,,,,,,,,,,,,,,,,,,9,3,2025-02-13_11h54.31.546,comp,2024.2.5,60.06802633406802,2025-02-13 11h59.07.194939 -0500,
121,121,0,critical,dhw,45.0,1.0,upper,117.0,117.0,200.0,125.0,125.0,200.0,3,1.2582809925079346,None,,,,,0,0,0,0,0,121,121,49,392.1387002468109,,,,,,,,,,,,,,,,,,,,,,,,,,,,,,,,,,,,,,,,,,,,,,,,,,,,,,,,,,,,,,,,,,,,,,,,,,,,,,,,,117.0,117.0,200.0,125.0,125.0,200.0,1.0,1.3,263,-277,480,-277,738,-278,392.12425446510315,392.1242938041687,392.1267874240875,392.1387002468109,392.2888414859772,392.2888414859772,392.2888414859772,392.2888414859772,392.2888414859772,392.2888414859772,392.2888414859772,393.4066047668457,3,1.2582809925079346,None,,,,,,,,,,,,,,,,,,9,3,2025-02-13_11h54.31.546,comp,2024.2.5,60.06802633406802,2025-02-13 11h59.07.194939 -0500,
122,122,0,critical,wdh,60.0,2.1,upper,125.0,200.0,100.0,100.0,200.0,125.0,2,1.1749508380889893,None,,,,,0,0,0,0,0,122,122,11,393.42221760749817,,,,,,,,,,,,,,,,,,,,,,,,,,,,,,,,,,,,,,,,,,,,,,,,,,,,,,,,,,,,,,,,,,,,,,,,,,,,,,,,,125.0,200.0,100.0,100.0,200.0,125.0,2.1,2.11,-246,263,0,252,208,-282,393.40743684768677,393.40747928619385,393.4101960659027,393.42221760749817,393.57222747802734,393.57222747802734,393.57222747802734,393.57222747802734,393.57222747802734,393.57222747802734,393.57222747802734,394.60668873786926,2,1.1749508380889893,None,,,,,,,,,,,,,,,,,,9,3,2025-02-13_11h54.31.546,comp,2024.2.5,60.06802633406802,2025-02-13 11h59.07.194939 -0500,
123,123,0,filler_square,None,None,None,None,None,None,None,None,None,None,1,2.5428619384765625,None,,,,,0,0,0,0,0,123,123,209,394.622189283371,,,,,,,,,,,,,,,,,,,,,,,,,,,,,,,,,,,,,,,,,,,,,,,,,,,,,,,,,,,,,,,,,,,,,,,,,,,,,,,,,96.22398500556739,96.22398500556739,66.72265830616973,84.41284440986014,69.86426501752696,81.60492512858983,2.1,2.11,-186,267,0,276,179,-265,394.60767936706543,394.6077210903168,394.6103136539459,394.622189283371,394.77215051651,394.77215051651,394.77215051651,394.77215051651,394.77215051651,394.77215051651,394.77215051651,397.1731731891632,1,2.5428619384765625,None,,,,,,,,,,,,,,,,,,9,3,2025-02-13_11h54.31.546,comp,2024.2.5,60.06802633406802,2025-02-13 11h59.07.194939 -0500,
124,124,0,critical,whd,60.0,3.0,lower,57.0,133.0,133.0,57.0,55.0,55.0,2,1.5034945011138916,None,,,,,0,0,0,0,0,124,124,92,397.1887631416321,,,,,,,,,,,,,,,,,,,,,,,,,,,,,,,,,,,,,,,,,,,,,,,,,,,,,,,,,,,,,,,,,,,,,,,,,,,,,,,,,57.0,133.0,133.0,57.0,55.0,55.0,3.0,3.1,-191,283,0,18,152,-260,397.1739912033081,397.17403388023376,397.1764485836029,397.1887631416321,397.33866691589355,397.33866691589355,397.33866691589355,397.33866691589355,397.33866691589355,397.33866691589355,397.33866691589355,398.70628571510315,2,1.5034945011138916,None,,,,,,,,,,,,,,,,,,9,3,2025-02-13_11h54.31.546,comp,2024.2.5,60.06802633406802,2025-02-13 11h59.07.194939 -0500,
125,125,0,catch,None,None,None,None,None,None,None,None,None,None,2,0.9061377048492432,None,,,,,0,0,0,0,0,125,125,124,398.721839427948,,,,,,,,,,,,,,,,,,,,,,,,,,,,,,,,,,,,,,,,,,,,,,,,,,,,,,,,,,,,,,,,,,,,,,,,,,,,,,,,,99,91,174,151,67,123,2.2,2.22,-217,269,0,-278,233,-272,398.7073540687561,398.7073976993561,398.70987606048584,398.721839427948,398.8720118999481,398.8720118999481,398.8720118999481,398.8720118999481,398.8720118999481,398.8720118999481,398.8720118999481,399.64030361175537,2,0.9061377048492432,None,,,,,,,,,,,,,,,,,,9,3,2025-02-13_11h54.31.546,comp,2024.2.5,60.06802633406802,2025-02-13 11h59.07.194939 -0500,
126,126,0,filler_square,None,None,None,None,None,None,None,None,None,None,3,1.437009334564209,None,,,,,0,0,0,0,0,126,126,190,399.6551694869995,,,,,,,,,,,,,,,,,,,,,,,,,,,,,,,,,,,,,,,,,,,,,,,,,,,,,,,,,,,,,,,,,,,,,,,,,,,,,,,,,60.463224626230684,59.787235720103276,64.26039351106238,63.37753657822829,71.32131274578123,71.32131274578123,2.2,2.22,-158,285,0,-287,163,-279,399.64128518104553,399.64132618904114,399.64346742630005,399.6551694869995,399.8052282333374,399.8052282333374,399.8052282333374,399.8052282333374,399.8052282333374,399.8052282333374,399.8052282333374,401.1062972545624,3,1.437009334564209,None,,,,,,,,,,,,,,,,,,9,3,2025-02-13_11h54.31.546,comp,2024.2.5,60.06802633406802,2025-02-13 11h59.07.194939 -0500,
127,127,0,critical,wdh,60.0,3.0,upper,125.0,200.0,100.0,100.0,200.0,125.0,3,1.5169694423675537,None,,,,,0,0,0,0,0,127,127,81,401.12188053131104,,,,,,,,,,,,,,,,,,,,,,,,,,,,,,,,,,,,,,,,,,,,,,,,,,,,,,,,,,,,,,,,,,,,,,,,,,,,,,,,,125.0,200.0,100.0,100.0,200.0,125.0,3.0,3.1,-246,255,0,-15,208,-272,401.1070957183838,401.10713601112366,401.10957169532776,401.12188053131104,401.2721402645111,401.2721402645111,401.2721402645111,401.2721402645111,401.2721402645111,401.2721402645111,401.2721402645111,402.6401493549347,3,1.5169694423675537,None,,,,,,,,,,,,,,,,,,9,3,2025-02-13_11h54.31.546,comp,2024.2.5,60.06802633406802,2025-02-13 11h59.07.194939 -0500,
128,128,0,filler_square,None,None,None,None,None,None,None,None,None,None,2,0.9171302318572998,None,,,,,0,0,0,0,0,128,128,187,402.65536284446716,,,,,,,,,,,,,,,,,,,,,,,,,,,,,,,,,,,,,,,,,,,,,,,,,,,,,,,,,,,,,,,,,,,,,,,,,,,,,,,,,81.56442382918804,102.65102671325357,123.94562437417802,123.94562437417802,88.41096036620375,108.2894676370548,4.0,4.2,-209,10,0,-289,212,-20,402.64110589027405,402.6411483287811,402.6436324119568,402.65536284446716,402.8051538467407,402.8051538467407,402.8051538467407,402.8051538467407,402.8051538467407,402.8051538467407,402.8051538467407,403.589772939682,2,0.9171302318572998,None,,,,,,,,,,,,,,,,,,9,3,2025-02-13_11h54.31.546,comp,2024.2.5,60.06802633406802,2025-02-13 11h59.07.194939 -0500,
129,129,0,critical,hdw,45.0,1.0,upper,200.0,125.0,117.0,117.0,125.0,200.0,1,1.8388667106628418,None,,,,,0,0,0,0,0,129,129,109,403.60510778427124,,,,,,,,,,,,,,,,,,,,,,,,,,,,,,,,,,,,,,,,,,,,,,,,,,,,,,,,,,,,,,,,,,,,,,,,,,,,,,,,,200.0,125.0,117.0,117.0,125.0,200.0,1.0,1.3,263,-290,480,-262,734,-259,403.59059166908264,403.59063172340393,403.59328389167786,403.60510778427124,403.75548577308655,403.75548577308655,403.75548577308655,403.75548577308655,403.75548577308655,403.75548577308655,403.75548577308655,405.45653891563416,1,1.8388667106628418,None,,,,,,,,,,,,,,,,,,9,3,2025-02-13_11h54.31.546,comp,2024.2.5,60.06802633406802,2025-02-13 11h59.07.194939 -0500,
130,130,0,critical,dwh,45.0,4.0,upper,117.0,117.0,125.0,200.0,200.0,125.0,2,1.4453637599945068,None,,,,,0,0,0,0,0,130,130,65,405.4717171192169,,,,,,,,,,,,,,,,,,,,,,,,,,,,,,,,,,,,,,,,,,,,,,,,,,,,,,,,,,,,,,,,,,,,,,,,,,,,,,,,,117.0,117.0,125.0,200.0,200.0,125.0,4.0,4.1,-254,-286,0,7,258,-269,405.4573440551758,405.4573862552643,405.4599070549011,405.4717171192169,405.62215757369995,405.62215757369995,405.62215757369995,405.62215757369995,405.62215757369995,405.62215757369995,405.62215757369995,406.92318391799927,2,1.4453637599945068,None,,,,,,,,,,,,,,,,,,9,3,2025-02-13_11h54.31.546,comp,2024.2.5,60.06802633406802,2025-02-13 11h59.07.194939 -0500,
131,131,0,filler_random,None,None,None,None,None,None,None,None,None,None,2,1.4174437522888184,None,,,,,0,0,0,0,0,131,131,157,406.9386818408966,,,,,,,,,,,,,,,,,,,,,,,,,,,,,,,,,,,,,,,,,,,,,,,,,,,,,,,,,,,,,,,,,,,,,,,,,,,,,,,,,81.85219954062242,154.92401849705038,93.37267950524158,193.92161299628535,156.65794644106444,103.71418184161313,2.2,2.21,-270,-256,0,259,245,271,406.9241306781769,406.9241735935211,406.9264476299286,406.9386818408966,407.0891227722168,407.0891227722168,407.0891227722168,407.0891227722168,407.0891227722168,407.0891227722168,407.0891227722168,408.3731846809387,2,1.4174437522888184,None,,,,,,,,,,,,,,,,,,9,3,2025-02-13_11h54.31.546,comp,2024.2.5,60.06802633406802,2025-02-13 11h59.07.194939 -0500,
132,132,0,critical,hdw,60.0,2.1,upper,200.0,125.0,100.0,100.0,125.0,200.0,3,1.0553090572357178,None,,,,,0,0,0,0,0,132,132,47,408.3886308670044,,,,,,,,,,,,,,,,,,,,,,,,,,,,,,,,,,,,,,,,,,,,,,,,,,,,,,,,,,,,,,,,,,,,,,,,,,,,,,,,,200.0,125.0,100.0,100.0,125.0,200.0,2.1,2.11,-208,271,0,261,246,-272,408.3739757537842,408.3740167617798,408.37615418434143,408.3886308670044,408.53879284858704,408.53879284858704,408.53879284858704,408.53879284858704,408.53879284858704,408.53879284858704,408.53879284858704,409.4567196369171,3,1.0553090572357178,None,,,,,,,,,,,,,,,,,,9,3,2025-02-13_11h54.31.546,comp,2024.2.5,60.06802633406802,2025-02-13 11h59.07.194939 -0500,
133,133,0,filler_square,None,None,None,None,None,None,None,None,None,None,1,1.5670537948608398,None,,,,,0,0,0,0,0,133,133,204,409.4717826843262,,,,,,,,,,,,,,,,,,,,,,,,,,,,,,,,,,,,,,,,,,,,,,,,,,,,,,,,,,,,,,,,,,,,,,,,,,,,,,,,,142.52337366140847,142.52337366140847,132.66833065432087,124.82268635420937,119.8149939645372,101.89671924979348,4.0,4.1,-230,-278,0,-2,209,-251,409.4577040672302,409.4577467441559,409.4602906703949,409.4717826843262,409.6219599246979,409.6219599246979,409.6219599246979,409.6219599246979,409.6219599246979,409.6219599246979,409.6219599246979,411.04017305374146,1,1.5670537948608398,None,,,,,,,,,,,,,,,,,,9,3,2025-02-13_11h54.31.546,comp,2024.2.5,60.06802633406802,2025-02-13 11h59.07.194939 -0500,
134,134,0,filler_square,None,None,None,None,None,None,None,None,None,None,1,0.8618481159210205,None,,,,,0,0,0,0,0,134,134,193,411.0553357601166,,,,,,,,,,,,,,,,,,,,,,,,,,,,,,,,,,,,,,,,,,,,,,,,,,,,,,,,,,,,,,,,,,,,,,,,,,,,,,,,,148.47336916519424,148.47336916519424,112.4755438598286,73.03628190438663,96.3880092685207,60.164713598184704,3.0,3.1,-207,251,0,6,163,-263,411.0411469936371,411.04120802879333,411.04375886917114,411.0553357601166,411.2052676677704,411.2052676677704,411.2052676677704,411.2052676677704,411.2052676677704,411.2052676677704,411.2052676677704,411.92310667037964,1,0.8618481159210205,None,,,,,,,,,,,,,,,,,,9,3,2025-02-13_11h54.31.546,comp,2024.2.5,60.06802633406802,2025-02-13 11h59.07.194939 -0500,
135,135,0,filler_square,None,None,None,None,None,None,None,None,None,None,2,0.8859117031097412,None,,,,,0,0,0,0,0,135,135,175,411.9385976791382,,,,,,,,,,,,,,,,,,,,,,,,,,,,,,,,,,,,,,,,,,,,,,,,,,,,,,,,,,,,,,,,,,,,,,,,,,,,,,,,,97.76173201799126,103.93469748474672,186.09836508323622,186.09836508323622,185.8009875177724,103.03590351664877,1.0,1.3,239,-270,480,-275,721,-276,411.924063205719,411.92410588264465,411.9265465736389,411.9385976791382,412.08873438835144,412.08873438835144,412.08873438835144,412.08873438835144,412.08873438835144,412.08873438835144,412.08873438835144,412.83974719047546,2,0.8859117031097412,None,,,,,,,,,,,,,,,,,,9,3,2025-02-13_11h54.31.546,comp,2024.2.5,60.06802633406802,2025-02-13 11h59.07.194939 -0500,
136,136,0,filler_square,None,None,None,None,None,None,None,None,None,None,2,1.5997717380523682,None,,,,,0,0,0,0,0,136,136,184,412.8550844192505,,,,,,,,,,,,,,,,,,,,,,,,,,,,,,,,,,,,,,,,,,,,,,,,,,,,,,,,,,,,,,,,,,,,,,,,,,,,,,,,,71.07415217463763,71.07415217463763,70.4095126771687,70.10479450060595,70.55125459239699,68.66728063040892,1.0,1.1,-647,268,-480,268,-315,274,412.8406858444214,412.8407254219055,412.8432948589325,412.8550844192505,413.0051636695862,413.0051636695862,413.0051636695862,413.0051636695862,413.0051636695862,413.0051636695862,413.0051636695862,414.4564471244812,2,1.5997717380523682,None,,,,,,,,,,,,,,,,,,9,3,2025-02-13_11h54.31.546,comp,2024.2.5,60.06802633406802,2025-02-13 11h59.07.194939 -0500,
137,137,0,critical,hwd,45.0,1.0,lower,133.0,57.0,57.0,133.0,65.0,65.0,2,2.1089065074920654,None,,,,,0,0,0,0,0,137,137,96,414.47199964523315,,,,,,,,,,,,,,,,,,,,,,,,,,,,,,,,,,,,,,,,,,,,,,,,,,,,,,,,,,,,,,,,,,,,,,,,,,,,,,,,,133.0,57.0,57.0,133.0,65.0,65.0,1.0,1.3,289,-255,480,-282,675,-278,414.45725297927856,414.45729327201843,414.45966935157776,414.47199964523315,414.6217942237854,414.6217942237854,414.6217942237854,414.6217942237854,414.6217942237854,414.6217942237854,414.6217942237854,416.58962655067444,2,2.1089065074920654,None,,,,,,,,,,,,,,,,,,9,3,2025-02-13_11h54.31.546,comp,2024.2.5,60.06802633406802,2025-02-13 11h59.07.194939 -0500,
138,138,0,filler_square,None,None,None,None,None,None,None,None,None,None,1,1.4225046634674072,None,,,,,0,0,0,0,0,138,138,198,416.6053035259247,,,,,,,,,,,,,,,,,,,,,,,,,,,,,,,,,,,,,,,,,,,,,,,,,,,,,,,,,,,,,,,,,,,,,,,,,,,,,,,,,65.45463585322679,63.97101829263804,59.87314320771831,58.24576168979658,67.1056355343991,67.1056355343991,2.1,2.12,-157,-276,0,-273,159,274,416.59060549736023,416.59064769744873,416.593124628067,416.6053035259247,416.75512886047363,416.75512886047363,416.75512886047363,416.75512886047363,416.75512886047363,416.75512886047363,416.75512886047363,418.04014706611633,1,1.4225046634674072,None,,,,,,,,,,,,,,,,,,9,3,2025-02-13_11h54.31.546,comp,2024.2.5,60.06802633406802,2025-02-13 11h59.07.194939 -0500,
139,139,0,critical,dhw,60.0,3.0,upper,100.0,100.0,200.0,125.0,125.0,200.0,3,1.5584673881530762,None,,,,,0,0,0,0,0,139,139,57,418.0549771785736,,,,,,,,,,,,,,,,,,,,,,,,,,,,,,,,,,,,,,,,,,,,,,,,,,,,,,,,,,,,,,,,,,,,,,,,,,,,,,,,,100.0,100.0,200.0,125.0,125.0,200.0,3.0,3.1,-208,280,0,-5,258,-275,418.04093766212463,418.0409789085388,418.0431823730469,418.0549771785736,418.2051827907562,418.2051827907562,418.2051827907562,418.2051827907562,418.2051827907562,418.2051827907562,418.2051827907562,419.6230380535126,3,1.5584673881530762,None,,,,,,,,,,,,,,,,,,9,3,2025-02-13_11h54.31.546,comp,2024.2.5,60.06802633406802,2025-02-13 11h59.07.194939 -0500,
140,140,0,filler_square,None,None,None,None,None,None,None,None,None,None,2,0.9835433959960938,None,,,,,0,0,0,0,0,140,140,192,419.6385922431946,,,,,,,,,,,,,,,,,,,,,,,,,,,,,,,,,,,,,,,,,,,,,,,,,,,,,,,,,,,,,,,,,,,,,,,,,,,,,,,,,145.45675272531133,140.59974020344146,154.97843304941318,154.97843304941318,149.83945663343485,112.54388765553348,2.2,2.21,-244,-253,0,262,230,281,419.6239929199219,419.62403297424316,419.6264371871948,419.6385922431946,419.7887074947357,419.7887074947357,419.7887074947357,419.7887074947357,419.7887074947357,419.7887074947357,419.7887074947357,420.6397228240967,2,0.9835433959960938,None,,,,,,,,,,,,,,,,,,9,3,2025-02-13_11h54.31.546,comp,2024.2.5,60.06802633406802,2025-02-13 11h59.07.194939 -0500,
